"Time (s)","Acceleration x (m/s^2)","Acceleration y (m/s^2)","Acceleration z (m/s^2)","Absolute acceleration (m/s^2)"
2.168084500E-2,-5.178068161E0,6.735795975E0,4.783252239E0,9.750017399E0
2.404391800E-2,-5.350351334E0,6.769295216E0,4.902893543E0,9.924111154E0
2.640735500E-2,-5.505885124E0,6.790830612E0,5.036891460E0,1.008961976E1
2.877084500E-2,-5.649454117E0,6.829115868E0,5.161318302E0,1.025633277E1
3.113428200E-2,-5.752345562E0,6.855436802E0,5.297709465E0,1.039962590E1
3.349772000E-2,-5.800201893E0,6.872186661E0,5.395814896E0,1.048733092E1
3.586120900E-2,-5.845665932E0,6.881757736E0,5.467599869E0,1.055580637E1
3.822464700E-2,-5.848058701E0,6.867401123E0,5.469992638E0,1.054901930E1
4.058808400E-2,-5.788238049E0,6.843472958E0,5.453242779E0,1.049164804E1
4.295157400E-2,-5.711667538E0,6.831508636E0,5.405386448E0,1.041685456E1
4.531501200E-2,-5.582455158E0,6.798008919E0,5.333601475E0,1.028708100E1
4.767844900E-2,-5.443671703E0,6.776473522E0,5.242674351E0,1.015085166E1
5.004193900E-2,-5.324030399E0,6.759724140E0,5.139782906E0,1.002280093E1
5.240537600E-2,-5.199603558E0,6.774080753E0,5.034498692E0,9.913133928E0
5.476881400E-2,-5.137390137E0,6.766902447E0,4.948357105E0,9.832089512E0
5.713230300E-2,-5.108676434E0,6.774080753E0,4.855037212E0,9.775383946E0
5.949574100E-2,-5.099104881E0,6.781259537E0,4.773681164E0,9.735213575E0
6.185917800E-2,-5.115854740E0,6.759724140E0,4.728217602E0,9.706795654E0
6.422266800E-2,-5.166104317E0,6.723831654E0,4.709074974E0,9.699171770E0
6.658610500E-2,-5.237888813E0,6.671189308E0,4.795216560E0,9.743425879E0
6.894954300E-2,-5.355136871E0,6.673582554E0,4.876572609E0,9.848611853E0
7.131303200E-2,-5.508277893E0,6.692724705E0,4.922036171E0,9.967955126E0
7.367647000E-2,-5.647061348E0,6.714260101E0,4.955535889E0,1.007610671E1
7.603990700E-2,-5.742774487E0,6.738188744E0,4.957928658E0,1.014710318E1
7.840339700E-2,-5.809773445E0,6.735795975E0,4.957928658E0,1.018358834E1
8.076683400E-2,-5.840879917E0,6.735795975E0,4.945964336E0,1.019555731E1
8.313027200E-2,-5.852844238E0,6.685546398E0,4.924428940E0,1.015885410E1
8.549376200E-2,-5.824130535E0,6.697510719E0,4.852644444E0,1.011559709E1
8.785719900E-2,-5.747560024E0,6.742974281E0,4.713860512E0,1.003606643E1
9.022063700E-2,-5.663811207E0,6.774080753E0,4.589433670E0,9.951373214E0
9.258412600E-2,-5.596812248E0,6.805187702E0,4.496113777E0,9.891912156E0
9.494756400E-2,-5.505885124E0,6.812366009E0,4.421936035E0,9.812065019E0
9.731100100E-2,-5.438885689E0,6.819544315E0,4.340580463E0,9.743115568E0
9.967443900E-2,-5.357530117E0,6.845865726E0,4.256831646E0,9.679339965E0
1.020379280E-1,-5.328815937E0,6.867401123E0,4.185046673E0,9.647387892E0
1.044013660E-1,-5.328815937E0,6.888936520E0,4.163511276E0,9.653421767E0
1.067648550E-1,-5.324030399E0,6.876972198E0,4.189832687E0,9.653638913E0
1.091282930E-1,-5.338387489E0,6.860222340E0,4.237689018E0,9.670524275E0
1.114917300E-1,-5.379065514E0,6.850651264E0,4.304687977E0,9.715765905E0
1.138552200E-1,-5.424529076E0,6.836294174E0,4.354937077E0,9.753251287E0
1.162186570E-1,-5.465207100E0,6.814758778E0,4.433900356E0,9.796371686E0
1.185820950E-1,-5.515456200E0,6.814758778E0,4.522434711E0,9.864766090E0
1.209455840E-1,-5.560919762E0,6.819544315E0,4.596612453E0,9.927681467E0
1.233090220E-1,-5.596812248E0,6.845865726E0,4.677968502E0,1.000367803E1
1.256724590E-1,-5.608776093E0,6.869793892E0,4.733003139E0,1.005254973E1
1.280359490E-1,-5.620740414E0,6.900900364E0,4.776073933E0,1.010079357E1
1.303993870E-1,-5.639883041E0,6.924828529E0,4.816751957E0,1.014705032E1
1.327628240E-1,-5.663811207E0,6.953542709E0,4.874179840E0,1.020725931E1
1.351263140E-1,-5.659025669E0,6.941578388E0,4.922036171E0,1.021941887E1
1.374897510E-1,-5.656632900E0,6.958328247E0,4.943571568E0,1.023985975E1
1.398531890E-1,-5.668596745E0,6.970292568E0,4.957928658E0,1.026153128E1
1.422166780E-1,-5.687739372E0,6.963113785E0,4.972285271E0,1.027418871E1
1.445801160E-1,-5.711667538E0,6.936792850E0,4.972285271E0,1.026965734E1
1.469435530E-1,-5.733202934E0,6.958328247E0,4.955535889E0,1.028811372E1
1.493069910E-1,-5.769095421E0,6.951149940E0,4.914857864E0,1.028381132E1
1.516704800E-1,-5.816951752E0,6.929614544E0,4.876572609E0,1.027800787E1
1.540339180E-1,-5.838487148E0,6.915257454E0,4.852644444E0,1.026921983E1
1.563974070E-1,-5.888736725E0,6.886543751E0,4.819144726E0,1.026283883E1
1.587608450E-1,-5.984449387E0,6.838686943E0,4.811966419E0,1.028281549E1
1.611242820E-1,-6.082555294E0,6.786045074E0,4.840680122E0,1.031891810E1
1.634877720E-1,-6.206982136E0,6.747759819E0,4.850251675E0,1.037226258E1
1.658512090E-1,-6.338587284E0,6.623332977E0,5.075176716E0,1.047872355E1
1.682146470E-1,-6.422336102E0,6.585047722E0,5.127819061E0,1.053108650E1
1.705781370E-1,-6.465406895E0,6.652047157E0,5.053641319E0,1.056364086E1
1.729415740E-1,-6.518048763E0,6.723831654E0,5.056034088E0,1.064229075E1
1.753050120E-1,-6.532405853E0,6.786045074E0,5.051248550E0,1.068821060E1
1.776684490E-1,-6.503692150E0,6.845865726E0,4.996213913E0,1.068297911E1
1.800319390E-1,-6.458228111E0,6.867401123E0,4.902893543E0,1.062583049E1
1.823953760E-1,-6.384050846E0,6.853044033E0,4.804787636E0,1.052645724E1
1.847588140E-1,-6.295516491E0,6.850651264E0,4.689932346E0,1.041923299E1
1.871223030E-1,-6.218945980E0,6.812366009E0,4.587040901E0,1.030167773E1
1.894857410E-1,-6.151947021E0,6.783652306E0,4.517649174E0,1.021144186E1
1.918492300E-1,-6.082555294E0,6.759724140E0,4.431507587E0,1.011580985E1
1.942126680E-1,-6.032305717E0,6.759724140E0,4.378865242E0,1.006265589E1
1.965761050E-1,-6.005984783E0,6.769295216E0,4.366901398E0,1.004813608E1
1.989395430E-1,-5.965306759E0,6.764509678E0,4.352544308E0,1.001439553E1
2.013030320E-1,-5.953342915E0,6.752545357E0,4.369294167E0,1.000649250E1
2.036664700E-1,-6.005984783E0,6.740581512E0,4.517649174E0,1.009536757E1
2.060299070E-1,-6.084948063E0,6.759724140E0,4.733003139E0,1.025289140E1
2.083933970E-1,-6.094519138E0,6.735795975E0,4.800002098E0,1.027395401E1
2.107568340E-1,-6.092126369E0,6.721438885E0,4.840680122E0,1.028221418E1
2.131202720E-1,-6.087340832E0,6.740581512E0,4.914857864E0,1.032700273E1
2.154837620E-1,-6.072983742E0,6.771687984E0,4.991427898E0,1.037551166E1
2.178471990E-1,-5.994020939E0,6.793223381E0,5.041677475E0,1.036796425E1
2.202106370E-1,-5.905486107E0,6.853044033E0,4.996213913E0,1.033446332E1
2.225741260E-1,-5.855237007E0,6.936792850E0,4.938786030E0,1.033414258E1
2.249375640E-1,-5.807380676E0,6.994220734E0,4.907679081E0,1.033102647E1
2.273010010E-1,-5.702096462E0,7.032505512E0,4.802394867E0,1.024856255E1
2.296644910E-1,-5.589633465E0,7.018148899E0,4.728217602E0,1.014171869E1
2.320279280E-1,-5.558526993E0,7.094718933E0,4.788038254E0,1.020576158E1
2.343913660E-1,-5.532206059E0,7.128218651E0,4.811966419E0,1.022603666E1
2.367548550E-1,-5.501099110E0,7.118647575E0,4.709074974E0,1.015443853E1
2.391182930E-1,-5.544169903E0,7.104290485E0,4.675575256E0,1.015232817E1
2.414817300E-1,-5.529813290E0,7.054041386E0,4.608576298E0,1.007855696E1
2.438452200E-1,-5.541777134E0,7.056434155E0,4.618147850E0,1.009117666E1
2.462086570E-1,-5.503491879E0,7.099504948E0,4.630111694E0,1.010590558E1
2.485720950E-1,-5.369493961E0,7.080362320E0,4.508078098E0,9.964224211E0
2.509355840E-1,-5.218746185E0,7.025327206E0,4.319045067E0,9.759338317E0
2.532990220E-1,-5.113461971E0,6.972685337E0,4.125226021E0,9.580361364E0
2.556624590E-1,-5.036891460E0,6.869793892E0,4.029513359E0,9.423445315E0
2.580259490E-1,-4.984249592E0,6.750152588E0,3.952943087E0,9.275400962E0
2.603893870E-1,-4.936393261E0,6.597012043E0,3.785445452E0,9.067422103E0
2.627528240E-1,-4.981856823E0,6.568298340E0,3.675375462E0,9.026063664E0
2.651163140E-1,-4.998606682E0,6.541976929E0,3.529413462E0,8.957694473E0
2.674797510E-1,-5.070391178E0,6.518048763E0,3.428914785E0,8.941548131E0
2.698431890E-1,-5.192425251E0,6.513263226E0,3.419343472E0,9.004209438E0
2.722066780E-1,-5.316852093E0,6.541976929E0,3.467200041E0,9.115253942E0
2.745701160E-1,-5.474778175E0,6.640082836E0,3.567698479E0,9.316242192E0
2.769335530E-1,-5.572884083E0,6.687939167E0,3.562912941E0,9.406376344E0
2.792970430E-1,-5.577669621E0,6.668796539E0,3.416950703E0,9.341241769E0
2.816604800E-1,-5.580062389E0,6.731009960E0,3.280559778E0,9.338397283E0
2.840239180E-1,-5.596812248E0,6.812366009E0,3.158525944E0,9.365304273E0
2.863874070E-1,-5.599205017E0,6.886543751E0,3.022135019E0,9.375973642E0
2.887508450E-1,-5.606383324E0,6.943971157E0,2.859423161E0,9.371583122E0
2.911142820E-1,-5.594419479E0,6.960721016E0,2.727817774E0,9.337566930E0
2.934777720E-1,-5.541777134E0,6.982256413E0,2.579462767E0,9.279915225E0
2.958412090E-1,-5.493920803E0,7.056434155E0,2.476571321E0,9.279538473E0
2.982046470E-1,-5.462814331E0,7.116254330E0,2.419143677E0,9.291699103E0
3.005681370E-1,-5.436492920E0,7.173682213E0,2.344966173E0,9.301399793E0
3.029315740E-1,-5.412564754E0,7.166503906E0,2.368894339E0,9.287965108E0
3.052950120E-1,-5.424529076E0,7.200003147E0,2.411965132E0,9.331834590E0
3.076585010E-1,-5.436492920E0,7.219145775E0,2.447857618E0,9.362880321E0
3.100219390E-1,-5.458028316E0,7.214360237E0,2.512463808E0,9.388798705E0
3.123853760E-1,-5.441278458E0,7.207181931E0,2.617748022E0,9.402318190E0
3.147488660E-1,-5.438885689E0,7.185646534E0,2.749353170E0,9.421992173E0
3.171123030E-1,-5.410171986E0,7.130611420E0,2.909672260E0,9.411789033E0
3.194757410E-1,-5.343173027E0,7.085147858E0,3.084348440E0,9.394787037E0
3.218392300E-1,-5.218746185E0,7.025327206E0,3.254238844E0,9.337055454E0
3.242026680E-1,-5.123033047E0,6.996613503E0,3.424129248E0,9.323235984E0
3.265661050E-1,-5.008177757E0,6.929614544E0,3.605983734E0,9.279252172E0
3.289295950E-1,-4.890929699E0,6.896114826E0,3.768695593E0,9.256384796E0
3.312930320E-1,-4.785645485E0,6.903293133E0,3.952943087E0,9.283513227E0
3.336564700E-1,-4.694717884E0,6.963113785E0,4.089334011E0,9.340662838E0
3.360199590E-1,-4.634897232E0,7.008577347E0,4.223331928E0,9.404199134E0
3.383833970E-1,-4.589433670E0,7.106683254E0,4.290330887E0,9.485504067E0
3.407468870E-1,-4.563112736E0,7.211967468E0,4.366901398E0,9.586673063E0
3.431103240E-1,-4.534399033E0,7.319644451E0,4.429114819E0,9.682717984E0
3.454737620E-1,-4.496113777E0,7.436892986E0,4.453042984E0,9.764835288E0
3.478371990E-1,-4.472185612E0,7.491927624E0,4.539184570E0,9.835325121E0
3.502006890E-1,-4.532006264E0,7.520641804E0,4.661218643E0,9.941131382E0
3.525641260E-1,-4.658825874E0,7.544569969E0,4.778466702E0,1.007268279E1
3.549275640E-1,-4.797609329E0,7.546962738E0,4.905286312E0,1.019978116E1
3.572910530E-1,-4.907679081E0,7.551748276E0,5.005784988E0,1.030398463E1
3.596544910E-1,-5.008177757E0,7.556533813E0,5.053641319E0,1.037893724E1
3.620179280E-1,-5.089533806E0,7.551748276E0,5.091926575E0,1.043359826E1
3.643814180E-1,-5.108676434E0,7.556533813E0,5.067998409E0,1.043476814E1
3.667448550E-1,-5.101497650E0,7.575676441E0,4.993820667E0,1.040934180E1
3.691082930E-1,-5.079962254E0,7.575676441E0,4.926821709E0,1.036679614E1
3.714717820E-1,-5.067998409E0,7.570890903E0,4.845465660E0,1.031898902E1
3.738352200E-1,-5.056034088E0,7.542177200E0,4.780859470E0,1.026179979E1
3.761986570E-1,-5.056034088E0,7.508677483E0,4.742574692E0,1.021938026E1
3.785621470E-1,-5.044070244E0,7.432106972E0,4.723432064E0,1.014838259E1
3.809255840E-1,-4.996213913E0,7.372286797E0,4.634897232E0,1.003967322E1
3.832890220E-1,-4.967499733E0,7.322037220E0,4.577469826E0,9.962003446E0
3.856525120E-1,-4.972285271E0,7.267002583E0,4.548755646E0,9.910808508E0
3.880159490E-1,-4.984249592E0,7.171289444E0,4.553541660E0,9.849105438E0
3.903793870E-1,-5.036891460E0,7.101897717E0,4.563112736E0,9.830016511E0
3.927428760E-1,-5.132604599E0,7.006184578E0,4.610969067E0,9.833172837E0
3.951063140E-1,-5.264209747E0,6.912864685E0,4.682754040E0,9.870551546E0
3.974697510E-1,-5.453242779E0,6.824330330E0,4.733003139E0,9.935323848E0
3.998332410E-1,-5.649454117E0,6.742974281E0,4.835894585E0,1.003842171E1
4.021966780E-1,-5.802595139E0,6.714260101E0,4.922036171E0,1.014779972E1
4.045601160E-1,-5.891129494E0,6.728617191E0,4.955535889E0,1.022433528E1
4.069236050E-1,-5.871986866E0,6.740581512E0,5.027320385E0,1.025619906E1
4.092870430E-1,-5.831308842E0,6.711867332E0,5.206781864E0,1.030358691E1
4.116504800E-1,-5.769095421E0,6.654439926E0,5.328815937E0,1.029370254E1
4.140139700E-1,-5.709274769E0,6.575476646E0,5.359922886E0,1.022553103E1
4.163774070E-1,-5.726024628E0,6.518048763E0,5.398207664E0,1.021826618E1
4.187408450E-1,-5.783452511E0,6.537191391E0,5.429314613E0,1.027913670E1
4.211043340E-1,-5.876772404E0,6.608976364E0,5.462814331E0,1.039506435E1
4.234677720E-1,-6.005984783E0,6.678368092E0,5.534598827E0,1.055008236E1
4.258312620E-1,-6.211767673E0,6.826723099E0,5.749952793E0,1.087438104E1
4.281946990E-1,-6.352943897E0,7.042077065E0,5.958128452E0,1.120044821E1
4.305581370E-1,-6.345765591E0,7.250252724E0,5.927021503E0,1.131213903E1
4.329215740E-1,-6.226124287E0,7.336394310E0,5.716453075E0,1.119219107E1
4.352850640E-1,-6.139982700E0,7.393822193E0,5.694917679E0,1.117139569E1
4.376485010E-1,-6.051448345E0,7.379465103E0,5.702096462E0,1.111712356E1
4.400119390E-1,-5.903093338E0,7.228717327E0,5.417350292E0,1.079113290E1
4.423754280E-1,-5.759523869E0,7.128218651E0,5.472385406E0,1.067382866E1
4.447388660E-1,-5.582455158E0,6.987041950E0,5.221138954E0,1.035581251E1
4.471023030E-1,-5.407779217E0,6.817151546E0,4.855037212E0,9.964387467E0
4.494657930E-1,-5.326423168E0,6.723831654E0,4.957928658E0,9.907661301E0
4.518292300E-1,-5.312066078E0,6.673582554E0,5.123033047E0,9.949885312E0
4.541926680E-1,-5.352744102E0,6.575476646E0,5.163711071E0,9.927369973E0
4.565561570E-1,-5.414957523E0,6.477370739E0,5.345565796E0,9.992655821E0
4.589195950E-1,-5.443671703E0,6.453442574E0,5.496313572E0,1.007422183E1
4.612830840E-1,-5.381458282E0,6.436692715E0,5.484349728E0,1.002343246E1
4.636465220E-1,-5.278566837E0,6.412764549E0,5.733202934E0,1.009239481E1
4.660099590E-1,-5.137390137E0,6.400800705E0,6.139982700E0,1.024999584E1
4.683734490E-1,-5.058426857E0,6.319444656E0,6.051448345E0,1.010658647E1
4.707368870E-1,-4.936393261E0,6.218945980E0,5.814558983E0,9.841359850E0
4.731003240E-1,-4.838287354E0,6.065805435E0,5.374279499E0,9.438532737E0
4.754637620E-1,-4.845465660E0,5.848058701E0,4.809573650E0,8.989456420E0
4.778272510E-1,-4.737788677E0,5.714060307E0,4.278367043E0,8.567470530E0
4.801906890E-1,-4.627718925E0,5.534598827E0,3.799802303E0,8.153898710E0
4.825541260E-1,-4.450650215E0,5.367101192E0,3.342773199E0,7.732282665E0
4.849176160E-1,-4.228117466E0,5.242674351E0,2.897708178E0,7.332075036E0
4.872810530E-1,-3.993621111E0,5.170889854E0,2.423929453E0,6.968683194E0
4.896445430E-1,-3.737588882E0,5.127819061E0,1.950150490E0,6.638311978E0
4.920079800E-1,-3.541377544E0,5.144568920E0,1.452443361E0,6.412295689E0
4.943714180E-1,-3.335594654E0,5.106283665E0,1.004985452E0,6.181449694E0
4.967348550E-1,-3.170490026E0,5.108676434E0,5.312066078E-1,6.035955796E0
4.990983450E-1,-3.069991350E0,5.130211830E0,2.871387079E-2,5.978690893E0
5.014617820E-1,-3.050848961E0,5.156532764E0,-2.273181528E-1,5.995763761E0
5.038252720E-1,-3.108276606E0,5.108676434E0,-3.684946895E-1,5.991305926E0
5.061887090E-1,-3.101098061E0,5.178068161E0,-6.963114142E-1,6.075693265E0
5.085521470E-1,-3.172882795E0,5.235496044E0,-7.824530005E-1,6.171696425E0
5.109156370E-1,-3.328416348E0,5.223531723E0,-8.494520187E-1,6.251816358E0
5.132790740E-1,-3.584448338E0,5.240281582E0,-8.159525394E-1,6.401140483E0
5.156425120E-1,-3.783052683E0,5.501099110E0,-1.057627559E0,6.759597256E0
5.180060010E-1,-4.007977962E0,5.833701611E0,-1.182054400E0,7.175877259E0
5.203694390E-1,-4.192225456E0,6.221338749E0,-1.182054400E0,7.594541639E0
5.227328760E-1,-4.338187218E0,6.604190350E0,-1.232303619E0,7.997110148E0
5.250963660E-1,-4.465006828E0,6.946363926E0,-1.325623751E0,8.363344791E0
5.274598030E-1,-4.737788677E0,7.214360237E0,-1.282552958E0,8.725742219E0
5.298232410E-1,-5.103890896E0,7.269395351E0,-1.052842021E0,8.944399777E0
5.321867300E-1,-5.570491314E0,7.264609337E0,-7.776673436E-1,9.187474560E0
5.345501680E-1,-6.020341873E0,7.185646534E0,-4.953143001E-1,9.387404787E0
5.369136050E-1,-6.441478729E0,7.188039303E0,-3.206382394E-1,9.657296005E0
5.392770950E-1,-6.814758778E0,7.171289444E0,-9.571290761E-2,9.893305335E0
5.416405320E-1,-7.133004189E0,7.257431030E0,7.417750359E-2,1.017622505E1
5.440039700E-1,-7.377072334E0,7.322037220E0,2.703889608E-1,1.039742927E1
5.463674590E-1,-7.580461979E0,7.326822758E0,4.570291340E-1,1.055246943E1
5.487308970E-1,-7.752745152E0,7.360322475E0,6.077769399E-1,1.070741786E1
5.510943340E-1,-7.939385414E0,7.348358154E0,7.992027402E-1,1.084762340E1
5.534578240E-1,-8.003992081E0,7.393822193E0,9.116654396E-1,1.093451552E1
5.558212620E-1,-8.008777618E0,7.458428383E0,1.052842021E0,1.099441445E1
5.581846990E-1,-8.042277336E0,7.546962738E0,1.215553880E0,1.109560465E1
5.605481890E-1,-8.085348129E0,7.601997375E0,1.368694544E0,1.118197403E1
5.629116260E-1,-8.090133667E0,7.724031448E0,1.497906923E0,1.128515174E1
5.652750640E-1,-8.049455643E0,7.867600918E0,1.598405480E0,1.136871938E1
5.676385530E-1,-7.989634991E0,7.984848976E0,1.708475351E0,1.142413973E1
5.700019910E-1,-7.936992645E0,8.090133667E0,1.794616938E0,1.147461393E1
5.723654280E-1,-7.915457249E0,8.106883049E0,1.811366796E0,1.147419130E1
5.747289180E-1,-7.932207108E0,8.068597794E0,1.797009826E0,1.145650140E1
5.770923550E-1,-7.927421570E0,8.006384850E0,1.734796405E0,1.139981270E1
5.794557930E-1,-7.807780266E0,7.977670670E0,1.672582984E0,1.128725812E1
5.818192820E-1,-7.716853142E0,7.872386456E0,1.718046665E0,1.115688018E1
5.841827200E-1,-7.558926582E0,7.786244869E0,1.813759565E0,1.100239538E1
5.865461570E-1,-7.420143127E0,7.580461979E0,2.069791555E0,1.080768083E1
5.889096470E-1,-7.290930748E0,7.477570534E0,2.234896421E0,1.068019168E1
5.912730840E-1,-7.209574699E0,7.408178806E0,2.356930256E0,1.060255633E1
5.936365220E-1,-7.214360237E0,7.207181931E0,2.488535643E0,1.049682212E1
5.960000120E-1,-7.192824841E0,7.226324558E0,2.435893536E0,1.048284661E1
5.983634490E-1,-7.188039303E0,7.295716286E0,2.397608280E0,1.051874092E1
6.007268870E-1,-7.252645493E0,7.278966427E0,2.349751949E0,1.054066189E1
6.030903760E-1,-7.238288403E0,7.369893551E0,2.220539331E0,1.056593322E1
6.054538140E-1,-7.176074982E0,7.353144169E0,2.065006018E0,1.047993469E1
6.078172510E-1,-6.994220734E0,7.434499741E0,1.785045743E0,1.036230179E1
6.101807410E-1,-6.881757736E0,7.377072334E0,1.569691658E0,1.020998128E1
6.125441780E-1,-6.757331371E0,7.226324558E0,1.323230863E0,9.981594752E0
6.149076160E-1,-6.798008919E0,7.001399040E0,1.098305583E0,9.820325297E0
6.172711050E-1,-6.786045074E0,6.807580471E0,8.709874153E-1,9.651537634E0
6.196345430E-1,-6.704689026E0,6.632904530E0,7.154539824E-1,9.458337689E0
6.219979800E-1,-6.503692150E0,6.707081795E0,5.838487148E-1,9.360760498E0
6.243614700E-1,-6.061019897E0,7.020541668E0,3.589234054E-1,9.281852914E0
6.267249070E-1,-5.845665932E0,7.226324558E0,1.627119333E-1,9.296131022E0
6.290883450E-1,-5.967699528E0,7.073183537E0,-1.196411345E-2,9.254377674E0
6.314518340E-1,-6.336194515E0,6.735795975E0,-1.244267747E-1,9.248447998E0
6.338152720E-1,-6.525227547E0,6.618547440E0,-2.416750938E-1,9.297428225E0
6.361787090E-1,-6.652047157E0,6.515655994E0,-3.086741269E-1,9.316586507E0
6.385421990E-1,-6.711867332E0,6.465406895E0,-3.637090325E-1,9.326464157E0
6.409056370E-1,-6.719046116E0,6.479763508E0,-3.852444589E-1,9.342447705E0
6.432690740E-1,-6.740581512E0,6.530013084E0,-3.732803464E-1,9.392329223E0
6.456325640E-1,-6.778866768E0,6.530013084E0,-3.493520916E-1,9.418925227E0
6.479960010E-1,-6.836294174E0,6.439085960E0,-2.225325108E-1,9.393948412E0
6.503594390E-1,-6.838686943E0,6.276373863E0,-2.392822644E-3,9.282268780E0
6.527229280E-1,-6.776473522E0,6.230910301E0,1.674975902E-1,9.207219560E0
6.550863660E-1,-6.769295216E0,6.041877270E0,3.637090325E-1,9.080744624E0
6.574498030E-1,-6.800402164E0,5.764309883E0,5.407779217E-1,8.931135358E0
6.598132930E-1,-6.838686943E0,5.539384365E0,6.963114142E-1,8.828208642E0
6.621767300E-1,-6.829115868E0,5.434100151E0,7.633104324E-1,8.760645570E0
6.645401680E-1,-6.766902447E0,5.271388054E0,8.709874153E-1,8.621897692E0
6.669036570E-1,-6.774080753E0,5.099104881E0,9.714859724E-1,8.534214998E0
6.692670950E-1,-6.817151546E0,4.989035130E0,1.083948612E0,8.516981351E0
6.716305320E-1,-6.821937561E0,4.948357105E0,1.215553880E0,8.514848288E0
6.739940220E-1,-6.680760860E0,5.041677475E0,1.342373490E0,8.476617487E0
6.763574590E-1,-6.415157318E0,5.158925533E0,1.454836130E0,8.359743073E0
6.787208970E-1,-6.154339790E0,5.125426292E0,1.524227977E0,8.152862311E0
6.810843870E-1,-5.917450428E0,5.154139996E0,1.521835208E0,7.993582492E0
6.834478240E-1,-5.793023586E0,5.056034088E0,1.488335729E0,7.831841815E0
6.858112620E-1,-5.704489231E0,4.948357105E0,1.524227977E0,7.703940963E0
6.881747510E-1,-5.639883041E0,4.950749874E0,1.545763373E0,7.662087799E0
6.905381890E-1,-5.654240131E0,4.850251675E0,1.555334687E0,7.610153662E0
6.929016260E-1,-5.685346603E0,4.773681164E0,1.533799291E0,7.580484029E0
6.952651160E-1,-5.740381718E0,4.716253281E0,1.495514154E0,7.578363270E0
6.976285530E-1,-5.819344521E0,4.541577339E0,1.476371527E0,7.527972387E0
6.999920430E-1,-5.891129494E0,4.436293125E0,1.442872047E0,7.514518158E0
7.023554800E-1,-6.001199245E0,4.357329845E0,1.404586911E0,7.548084536E0
7.047189180E-1,-6.034698486E0,4.134797573E0,1.339980721E0,7.437048146E0
7.070823550E-1,-6.063412666E0,3.840480328E0,1.213161111E0,7.279149826E0
7.094458450E-1,-6.104090691E0,3.570091486E0,1.012163997E0,7.143525204E0
7.118092820E-1,-6.139982700E0,3.311666489E0,7.800601721E-1,7.019616540E0
7.141727200E-1,-6.147161484E0,3.132204771E0,5.000999570E-1,6.917253863E0
7.165362090E-1,-6.075376511E0,3.024527788E0,2.751746178E-1,6.792178528E0
7.188996470E-1,-5.895915031E0,2.976671457E0,2.368894368E-1,6.608971450E0
7.212630840E-1,-5.721239090E0,2.890529871E0,3.541377485E-1,6.419747129E0
7.236265740E-1,-5.584847927E0,2.880958557E0,5.599204898E-1,6.309037924E0
7.259900120E-1,-5.434100151E0,2.809173822E0,7.489534616E-1,6.162940313E0
7.283535010E-1,-5.288137913E0,2.761317253E0,8.087740541E-1,6.020248419E0
7.307169390E-1,-5.132604599E0,2.691925526E0,8.183453679E-1,5.853185641E0
7.330803760E-1,-5.099104881E0,2.758924484E0,7.704889178E-1,5.848605652E0
7.354438660E-1,-5.180460930E0,2.892922640E0,7.585247755E-1,5.981767020E0
7.378073030E-1,-5.261816978E0,3.110669374E0,7.585247755E-1,6.159410825E0
7.401707410E-1,-5.206781864E0,3.287738323E0,7.704889178E-1,6.205920869E0
7.425342300E-1,-5.242674351E0,3.725624800E0,7.417750359E-1,6.474267889E0
7.448976680E-1,-5.233103275E0,4.048655987E0,6.388836503E-1,6.647191701E0
7.472611050E-1,-5.223531723E0,4.278367043E0,5.024927258E-1,6.770687347E0
7.496245950E-1,-5.422136307E0,4.496113777E0,3.469592929E-1,7.052303310E0
7.519880320E-1,-5.706882000E0,4.850251675E0,2.033899277E-1,7.492316793E0
7.543514700E-1,-5.764309883E0,5.233103275E0,2.560320199E-1,7.789620704E0
7.567149590E-1,-5.402993679E0,5.711667538E0,7.872386575E-1,7.901596767E0
7.590783970E-1,-4.905286312E0,6.142375946E0,1.531406522E0,8.008484376E0
7.614418340E-1,-4.335794449E0,6.343372822E0,2.160718918E0,7.981616284E0
7.638053240E-1,-3.706482172E0,6.360122681E0,2.644068956E0,7.821781846E0
7.661687620E-1,-3.136990547E0,6.142375946E0,2.916850805E0,7.488491876E0
7.685321990E-1,-2.464607239E0,5.728417397E0,3.108276606E0,6.967814447E0
7.708956890E-1,-1.849651933E0,5.326423168E0,3.280559778E0,6.523347952E0
7.732591260E-1,-1.749153376E0,5.259424210E0,3.323630571E0,6.462785833E0
7.756225640E-1,-2.067398787E0,5.450850010E0,3.266202927E0,6.682363738E0
7.779860530E-1,-2.287538528E0,5.592026711E0,2.986242771E0,6.739528258E0
7.803494910E-1,-2.483749866E0,5.752345562E0,2.600998163E0,6.784075789E0
7.827129280E-1,-2.924029350E0,6.001199245E0,2.203789711E0,7.030009183E0
7.850764180E-1,-3.553341627E0,6.369693756E0,1.768295884E0,7.505071992E0
7.874398550E-1,-4.551148891E0,6.943971157E0,1.280160069E0,8.400625064E0
7.898032930E-1,-5.489135265E0,7.434499741E0,7.872386575E-1,9.274811969E0
7.921667820E-1,-6.008377552E0,7.570890903E0,2.871387303E-1,9.669614187E0
7.945302200E-1,-6.032305717E0,7.384250641E0,-2.703889608E-1,9.538814391E0
7.968936570E-1,-5.828916073E0,7.231110096E0,-9.714859724E-1,9.338575951E0
7.992571470E-1,-5.180460930E0,7.424928665E0,-1.646261930E0,9.202006274E0
8.016205840E-1,-5.302495003E0,7.582854748E0,-2.220539331E0,9.515615288E0
8.039840220E-1,-5.446064472E0,7.661818027E0,-2.955136061E0,9.853725329E0
8.063475120E-1,-5.575276852E0,7.855636597E0,-3.785445452E0,1.035008867E1
8.087109490E-1,-5.733202934E0,8.200202942E0,-4.778466702E0,1.108813276E1
8.110743870E-1,-5.893522263E0,8.647661209E0,-6.005984783E0,1.206596462E1
8.134378760E-1,-5.898307800E0,9.097511292E0,-7.264609337E0,1.305102660E1
8.158013140E-1,-5.668596745E0,9.485149384E0,-8.535198212E0,1.396247315E1
8.181647510E-1,-5.367101192E0,9.841679573E0,-9.856036186E0,1.492668353E1
8.205282410E-1,-5.113461971E0,1.024128056E1,-1.121994495E1,1.602867697E1
8.228916780E-1,-4.986642361E0,1.067677498E1,-1.257428265E1,1.723289616E1
8.252551160E-1,-4.878965378E0,1.102612686E1,-1.398844147E1,1.846770888E1
8.276186050E-1,-4.797609329E0,1.120558834E1,-1.536670685E1,1.961422812E1
8.299820430E-1,-4.558327198E0,1.147119141E1,-1.640758514E1,2.053230210E1
8.323454800E-1,-4.431507587E0,1.177747345E1,-1.689572144E1,2.106685888E1
8.347089700E-1,-4.563112736E0,1.220339584E1,-1.674018669E1,2.121270182E1
8.370724070E-1,-4.742574692E0,1.243071365E1,-1.600080490E1,2.080962311E1
8.394358970E-1,-4.977071285E0,1.265563869E1,-1.473978710E1,2.005486856E1
8.417993340E-1,-5.154139996E0,1.285902882E1,-1.329930782E1,1.920394152E1
8.441627720E-1,-5.285745144E0,1.299541950E1,-1.169133186E1,1.826218143E1
8.465262090E-1,-5.441278458E0,1.300259781E1,-9.980463028E0,1.727092074E1
8.488896990E-1,-5.608776093E0,1.305524063E1,-8.226524353E0,1.641868996E1
8.512531370E-1,-5.793023586E0,1.310070419E1,-6.455835342E0,1.571195031E1
8.536166260E-1,-5.898307800E0,1.296431351E1,-4.733003139E0,1.500882335E1
8.559800640E-1,-5.869594097E0,1.281117249E1,-3.098705292E0,1.442845279E1
8.583435010E-1,-5.845665932E0,1.275135231E1,-1.385444283E0,1.409568203E1
8.607069910E-1,-5.836094379E0,1.265085316E1,2.512463629E-1,1.393438940E1
8.630704280E-1,-5.919843197E0,1.256710434E1,1.701296926E0,1.399539446E1
8.654338660E-1,-5.955735683E0,1.246421337E1,2.912065268E0,1.411763176E1
8.677973550E-1,-6.056233883E0,1.239482117E1,3.940979004E0,1.434715568E1
8.701607930E-1,-6.118447304E0,1.233260822E1,4.833501816E0,1.459079720E1
8.725242300E-1,-6.025127411E0,1.213400364E1,5.436492920E0,1.459765940E1
8.748877200E-1,-5.991627693E0,1.200000572E1,5.778666496E0,1.460454471E1
8.772511570E-1,-5.804987907E0,1.178704453E1,5.991627693E0,1.444063384E1
8.796145950E-1,-5.532206059E0,1.162193966E1,6.094519138E0,1.424141667E1
8.819780840E-1,-5.338387489E0,1.150469112E1,6.120840549E0,1.408264847E1
8.843415220E-1,-5.132604599E0,1.129651546E1,5.986842155E0,1.377668939E1
8.867049590E-1,-4.850251675E0,1.112183952E1,5.745167255E0,1.342487253E1
8.890684490E-1,-4.517649174E0,1.099262714E1,5.505885124E0,1.309815928E1
8.914318870E-1,-4.134797573E0,1.087777138E1,5.235496044E0,1.276059873E1
8.937953240E-1,-3.830909014E0,1.083230782E1,4.998606682E0,1.252999702E1
8.961588140E-1,-3.527020693E0,1.085145092E1,4.790431023E0,1.237505925E1
8.985222510E-1,-3.168097258E0,1.082752228E1,4.493721008E0,1.214354180E1
9.008856890E-1,-2.679961443E0,1.079162979E1,4.118047714E0,1.185747797E1
9.032491780E-1,-2.464607239E0,1.065045357E1,3.754338741E0,1.155861192E1
9.056126160E-1,-2.376072884E0,1.063848972E1,3.369094372E0,1.140938135E1
9.079760530E-1,-2.373680115E0,1.059781170E1,2.883351326E0,1.123662249E1
9.103395430E-1,-2.366501570E0,1.050927734E1,2.407179594E0,1.103810462E1
9.127029800E-1,-2.318645239E0,1.048534870E1,1.897508383E0,1.090500762E1
9.150664700E-1,-2.285145521E0,1.045902824E1,1.411765337E0,1.079843707E1
9.174299070E-1,-2.311466694E0,1.049731255E1,9.379864931E-1,1.078963705E1
9.197933450E-1,-2.404786825E0,1.051884842E1,5.048855543E-1,1.080204060E1
9.221568340E-1,-2.514856577E0,1.055952644E1,7.657032460E-2,1.085513544E1
9.245202720E-1,-2.600998163E0,1.063370419E1,-2.967100143E-1,1.095120509E1
9.268837090E-1,-2.598605394E0,1.072941685E1,-5.982056856E-1,1.105581231E1
9.292471990E-1,-2.565105915E0,1.083948612E1,-7.944171429E-1,1.116715391E1
9.316106370E-1,-2.565105915E0,1.093280697E1,-9.379864931E-1,1.126880008E1
9.339740740E-1,-2.581855536E0,1.101177025E1,-1.024128079E0,1.135666766E1
9.363375640E-1,-2.596212626E0,1.113380337E1,-1.048056364E0,1.148043203E1
9.387010010E-1,-2.629712105E0,1.127737331E1,-1.024128079E0,1.162511819E1
9.410644390E-1,-2.665604353E0,1.141854954E1,-9.810572863E-1,1.176652852E1
9.434279280E-1,-2.646461725E0,1.152622700E1,-9.475577474E-1,1.186404375E1
9.457913660E-1,-2.517249346E0,1.164347458E1,-9.068797827E-1,1.194694419E1
9.481548030E-1,-2.392822742E0,1.173440266E1,-8.638089895E-1,1.200699681E1
9.505182930E-1,-2.313859463E0,1.179422283E1,-8.015955687E-1,1.204575416E1
9.528817300E-1,-2.184647083E0,1.188514996E1,-7.345965505E-1,1.210657278E1
9.552451680E-1,-2.108076811E0,1.196650600E1,-6.867401004E-1,1.217016293E1
9.576086570E-1,-2.050648928E0,1.204307652E1,-7.393822074E-1,1.223877196E1
9.599720950E-1,-1.990828395E0,1.205743313E1,-8.159525394E-1,1.224789247E1
9.623355840E-1,-1.864008784E0,1.211246777E1,-8.949156404E-1,1.228768807E1
9.646990220E-1,-1.737189293E0,1.211246777E1,-9.044869542E-1,1.226979212E1
9.670624590E-1,-1.612762451E0,1.202632618E1,-9.068797827E-1,1.216782458E1
9.694258970E-1,-1.619940877E0,1.196172047E1,-9.427721500E-1,1.210767460E1
9.717893870E-1,-1.603191137E0,1.197607708E1,-8.973084688E-1,1.211617954E1
9.741528240E-1,-1.596012712E0,1.197846985E1,-7.369893789E-1,1.210678115E1
9.765163140E-1,-1.560120344E0,1.201914787E1,-5.431707501E-1,1.213214431E1
9.788797510E-1,-1.466800332E0,1.204786205E1,-3.134597540E-1,1.214087066E1
9.812431890E-1,-1.361516118E0,1.207179070E1,-1.722832322E-1,1.214954889E1
9.836066780E-1,-1.313659668E0,1.208375454E1,-8.374879509E-2,1.215523917E1
9.859701160E-1,-1.299302697E0,1.209093285E1,2.392822644E-3,1.216054482E1
9.883335530E-1,-1.225125194E0,1.210768223E1,1.052841991E-1,1.216996243E1
9.906970430E-1,-9.978070259E-1,1.203111267E1,7.657032460E-2,1.207266143E1
9.930604800E-1,-7.561319470E-1,1.190668583E1,-1.794617027E-1,1.193202034E1
9.954239180E-1,-6.412764788E-1,1.169611740E1,-5.934200287E-1,1.172870603E1
9.977874070E-1,-6.460621357E-1,1.147119141E1,-1.232303619E0,1.155526723E1
1.000150845E0,-8.374879360E-1,1.112423229E1,-1.887937069E0,1.131433765E1
1.002514282E0,-1.198804140E0,1.061216831E1,-2.612962246E0,1.099467232E1
1.004877772E0,-1.840080619E0,9.966106415E0,-3.644268990E0,1.076985934E1
1.007241209E0,-2.775674343E0,9.073583603E0,-4.802394867E0,1.063472068E1
1.009604647E0,-3.986442566E0,8.044670105E0,-6.101697922E0,1.085537466E1
1.011968137E0,-5.087141037E0,7.051648140E0,-7.345965385E0,1.138279196E1
1.014331574E0,-5.955735683E0,6.214160442E0,-8.504091263E0,1.209984073E1
1.016695012E0,-6.216553211E0,5.611168861E0,-9.236295700E0,1.246755421E1
1.019058501E0,-5.943771362E0,5.201996326E0,-1.004267693E1,1.277671881E1
1.021421939E0,-5.163711071E0,4.914857864E0,-1.084187984E1,1.297559626E1
1.023785428E0,-4.632504463E0,4.905286312E0,-1.004028416E1,1.209666224E1
1.026148866E0,-4.656432629E0,5.115854740E0,-8.228917122E0,1.075032146E1
1.028512303E0,-4.919643402E0,5.290530682E0,-6.156732559E0,9.491994622E0
1.030875793E0,-4.938786030E0,5.493920803E0,-3.969692707E0,8.386491127E0
1.033239230E0,-4.804787636E0,5.647061348E0,-1.459621787E0,7.556836762E0
1.035602668E0,-4.843072891E0,5.759523869E0,1.217946768E0,7.623048245E0
1.037966157E0,-5.237888813E0,5.874379635E0,3.316452265E0,8.540648157E0
1.040329595E0,-5.690132141E0,5.991627693E0,4.766502857E0,9.539221964E0
1.042693032E0,-6.147161484E0,5.998806477E0,5.778666496E0,1.035211379E1
1.045056522E0,-6.714260101E0,5.833701611E0,5.970092297E0,1.071239307E1
1.047419959E0,-7.097112179E0,5.580062389E0,5.563312531E0,1.060455298E1
1.049783397E0,-7.396214962E0,5.474778175E0,4.766502857E0,1.036323990E1
1.052146887E0,-7.613961697E0,5.599205017E0,3.816552162E0,1.019262380E1
1.054510324E0,-7.697710514E0,5.984449387E0,2.739781857E0,1.012792112E1
1.056873762E0,-7.795815945E0,6.613761902E0,1.765903115E0,1.037472923E1
1.059237251E0,-7.374679565E0,7.350750923E0,1.397408366E0,1.050581686E1
1.061600689E0,-6.625725746E0,7.728816986E0,1.584048629E0,1.030262412E1
1.063964126E0,-5.857629776E0,8.147561073E0,2.151147604E0,1.026265141E1
1.066327616E0,-5.173282623E0,8.707481384E0,3.275774240E0,1.064489465E1
1.068691053E0,-4.730610371E0,9.544969559E0,4.797609329E0,1.168341447E1
1.071054491E0,-4.673182487E0,1.075573826E1,5.130211830E0,1.280014115E1
1.073417980E0,-5.034498692E0,1.208375454E1,3.818944931E0,1.363626200E1
1.075781418E0,-5.249852657E0,1.327538013E1,2.543570518E0,1.450056625E1
1.078144907E0,-5.359922886E0,1.440239906E1,1.902294040E0,1.548472133E1
1.080508345E0,-5.264209747E0,1.533081436E1,1.500299811E0,1.627871840E1
1.082871782E0,-5.099104881E0,1.607019615E1,9.188438654E-1,1.688479639E1
1.085235272E0,-4.938786030E0,1.657508278E1,5.982056633E-2,1.729533333E1
1.087598709E0,-4.486542225E0,1.686940002E1,-6.460621357E-1,1.746777360E1
1.089962147E0,-3.785445452E0,1.687657738E1,-1.148554921E0,1.733400241E1
1.092325637E0,-2.809173822E0,1.660858154E1,-1.567298889E0,1.691723572E1
1.094689074E0,-1.773081541E0,1.618505287E1,-2.057827473E0,1.641141092E1
1.097052512E0,-7.178468108E-1,1.558923912E1,-2.388036966E0,1.578741274E1
1.099416001E0,4.474578202E-1,1.488335705E1,-2.450250387E0,1.509033673E1
1.101779439E0,1.607976794E0,1.406979752E1,-2.404786825E0,1.436411470E1
1.104142876E0,2.347358942E0,1.327298737E1,-2.550748825E0,1.371818527E1
1.106506366E0,2.737389088E0,1.249532032E1,-2.931207657E0,1.312319730E1
1.108869803E0,2.868994236E0,1.173918819E1,-3.347558975E0,1.253976947E1
1.111233241E0,2.739781857E0,1.096869946E1,-3.594019651E0,1.186320992E1
1.113596730E0,2.536391973E0,1.031785107E1,-3.577269793E0,1.121107462E1
1.115960168E0,2.266003132E0,9.829715729E0,-3.445664644E0,1.065976953E1
1.118323605E0,2.019542217E0,9.387042999E0,-3.251846075E0,1.013753569E1
1.120687095E0,1.957328916E0,9.037691116E0,-3.232703447E0,9.795987381E0
1.123050532E0,2.196611166E0,8.855836868E0,-2.883351326E0,9.568942581E0
1.125413970E0,2.510071039E0,8.791230202E0,-2.084148407E0,9.377092282E0
1.127777459E0,2.727817774E0,8.829515457E0,-1.258624673E0,9.326600082E0
1.130140897E0,2.840280533E0,8.848658562E0,-6.269195080E-1,9.314450060E0
1.132504334E0,2.782852650E0,8.700303078E0,-3.517449200E-1,9.141294602E0
1.134867824E0,2.811566591E0,8.597412109E0,1.196411345E-2,9.045470956E0
1.137231262E0,2.825923443E0,8.609375954E0,4.019941986E-1,9.070214824E0
1.139594699E0,2.785245657E0,8.575876236E0,4.426721931E-1,9.027691026E0
1.141958189E0,2.876172781E0,8.585447311E0,4.953143001E-1,9.067944180E0
1.144321626E0,2.914458036E0,8.654839516E0,6.484549642E-1,9.155370365E0
1.146685064E0,2.921636343E0,8.793622971E0,9.116654396E-1,9.311009491E0
1.149048553E0,2.916850805E0,8.918049812E0,1.150947690E0,9.453269892E0
1.151411991E0,3.041277647E0,9.037691116E0,1.509871125E0,9.654477783E0
1.153775480E0,3.294916868E0,9.140582085E0,2.026720762E0,9.925437777E0
1.156138918E0,3.436093330E0,9.195617676E0,2.249253273E0,1.007101098E1
1.158502355E0,3.565305710E0,9.233902931E0,2.215753794E0,1.014327033E1
1.160865845E0,3.756731510E0,9.265008926E0,2.076970100E0,1.021113250E1
1.163229282E0,4.098905087E0,9.305686951E0,2.033899307E0,1.036983987E1
1.165592720E0,4.579862595E0,9.265008926E0,2.120040894E0,1.055036043E1
1.167956209E0,5.032105923E0,9.245866776E0,2.196611166E0,1.075328987E1
1.170319647E0,5.450850010E0,9.267401695E0,2.105684042E0,1.095583887E1
1.172683084E0,5.709274769E0,9.317651749E0,1.844866276E0,1.108232756E1
1.175046574E0,5.812166214E0,9.422935486E0,1.634297848E0,1.119124295E1
1.177410012E0,5.898307800E0,9.628718376E0,1.399801254E0,1.137812357E1
1.179773449E0,6.240481377E0,9.734002113E0,9.714859724E-1,1.160336977E1
1.182136939E0,6.675975323E0,9.635896683E0,5.551348329E-1,1.173572861E1
1.184500376E0,6.594619274E0,9.647860527E0,2.656033039E-1,1.168934392E1
1.186863814E0,6.319444656E0,9.693324089E0,2.153540403E-2,1.157136018E1
1.189227303E0,6.276373863E0,9.722038269E0,-2.201396823E-1,1.157408132E1
1.191590741E0,6.319444656E0,9.638289452E0,-4.211367965E-1,1.153296842E1
1.193954178E0,6.498906136E0,9.485149384E0,-6.245267391E-1,1.151494131E1
1.196317668E0,6.503692150E0,9.351150513E0,-7.824530005E-1,1.141727902E1
1.198681105E0,6.273981094E0,9.269794464E0,-9.619147182E-1,1.123464321E1
1.201044543E0,6.195017815E0,9.092725754E0,-1.170090318E0,1.106458398E1
1.203408032E0,6.326622963E0,8.829515457E0,-1.339980721E0,1.094449860E1
1.205771470E0,6.398407936E0,8.599804878E0,-1.237089276E0,1.079011853E1
1.208134907E0,6.367300987E0,8.432307243E0,-8.374879360E-1,1.059942043E1
1.210498397E0,6.647261143E0,8.283951759E0,-2.584248483E-1,1.062434567E1
1.212861834E0,7.013363361E0,8.169096947E0,1.459621787E-1,1.076766992E1
1.215225324E0,7.336394310E0,8.109275818E0,4.666004181E-1,1.094535297E1
1.217588762E0,7.664210796E0,8.114061356E0,6.101697683E-1,1.117812265E1
1.219952199E0,7.920242786E0,8.149953842E0,6.269195080E-1,1.138178464E1
1.222315689E0,8.145168304E0,8.219346046E0,4.809573591E-1,1.158156881E1
1.224679126E0,8.300702095E0,8.286344528E0,-7.178467698E-3,1.172881974E1
1.227042564E0,8.384450912E0,8.377271652E0,-7.776673436E-1,1.187781394E1
1.229406053E0,8.441878319E0,8.420342445E0,-1.718046665E0,1.204654145E1
1.231769491E0,8.480163574E0,8.475378036E0,-2.718246460E0,1.229365979E1
1.234132928E0,8.508877754E0,8.508877754E0,-3.689732552E0,1.258634687E1
1.236496418E0,8.542376518E0,8.535198212E0,-4.670789719E0,1.294751257E1
1.238859855E0,8.642875671E0,8.590232849E0,-5.608776093E0,1.341453576E1
1.241223293E0,8.779266357E0,8.633303642E0,-6.506084919E0,1.392618363E1
1.243586782E0,8.963513374E0,8.628518105E0,-7.429714203E0,1.449125770E1
1.245950220E0,9.054440498E0,8.595019341E0,-8.350951195E0,1.501984141E1
1.248313657E0,9.140582085E0,8.525627136E0,-9.114261627E0,1.546952888E1
1.250677147E0,9.276973724E0,8.444271088E0,-9.729216576E0,1.587531451E1
1.253040584E0,9.403793335E0,8.341380119E0,-1.016710377E1,1.616724931E1
1.255404022E0,9.477970123E0,8.200202942E0,-1.042792130E1,1.630388875E1
1.257767512E0,9.418149948E0,8.035098076E0,-1.050688457E1,1.623757904E1
1.260130949E0,9.183652878E0,7.877171993E0,-1.043509960E1,1.597750364E1
1.262494439E0,8.812766075E0,7.750352383E0,-1.022453117E1,1.556514843E1
1.264857876E0,8.398807526E0,7.635497093E0,-9.903892517E0,1.506412529E1
1.267221314E0,7.977670670E0,7.532605648E0,-9.480362892E0,1.450036750E1
1.269584803E0,7.515855789E0,7.467999458E0,-8.999405861E0,1.390138159E1
1.271948241E0,7.063612461E0,7.391428947E0,-8.489734650E0,1.328922260E1
1.274311678E0,6.613761902E0,7.341179848E0,-7.953742504E0,1.268450976E1
1.276675168E0,6.139982700E0,7.324429989E0,-7.458428383E0,1.212331704E1
1.279038605E0,5.699703693E0,7.307680130E0,-6.984649181E0,1.160491858E1
1.281402043E0,5.285745144E0,7.267002583E0,-6.575476646E0,1.113486962E1
1.283765532E0,4.857429981E0,7.219145775E0,-6.204588890E0,1.068679629E1
1.286128970E0,4.390829563E0,7.226324558E0,-5.840879917E0,1.027691729E1
1.288492407E0,3.869194269E0,7.259823799E0,-5.508277893E0,9.900345006E0
1.290855897E0,3.335594654E0,7.348358154E0,-5.235496044E0,9.619510283E0
1.293219334E0,2.849851847E0,7.396214962E0,-4.948357105E0,9.344083120E0
1.295582772E0,2.411965132E0,7.448856831E0,-4.658825874E0,9.110856294E0
1.297946262E0,2.050648928E0,7.456035137E0,-4.371686935E0,8.883088858E0
1.300309699E0,1.808973908E0,7.424928665E0,-4.051048756E0,8.649447861E0
1.302673137E0,1.615155339E0,7.422535896E0,-3.725624800E0,8.460676453E0
1.305036626E0,1.450050473E0,7.412964344E0,-3.457628727E0,8.307218738E0
1.307400064E0,1.272981644E0,7.446464062E0,-3.196810961E0,8.203042704E0
1.309763501E0,1.076770186E0,7.539783955E0,-2.935993433E0,8.162587430E0
1.312126991E0,8.422735929E-1,7.616354465E0,-2.706282377E0,8.126637955E0
1.314490428E0,6.556333899E-1,7.630711555E0,-2.555534601E0,8.073931575E0
1.316853918E0,4.761717021E-1,7.594819069E0,-2.474178553E0,8.001848267E0
1.319217355E0,3.206382394E-1,7.566105366E0,-2.419143677E0,7.949906629E0
1.321580793E0,1.746760458E-1,7.587640762E0,-2.388036966E0,7.956476897E0
1.323944282E0,5.264209956E-2,7.578069210E0,-2.366501570E0,7.939158257E0
1.326307720E0,-7.896314561E-2,7.609176159E0,-2.335394859E0,7.959891089E0
1.328671157E0,-1.914258152E-1,7.616354465E0,-2.344966173E0,7.971471981E0
1.331034647E0,-2.823530734E-1,7.625925541E0,-2.404786825E0,8.001091381E0
1.333398084E0,-3.852444589E-1,7.633104324E0,-2.490928411E0,8.038496083E0
1.335761522E0,-4.498506486E-1,7.633104324E0,-2.658426046E0,8.095299641E0
1.338125012E0,-4.833501875E-1,7.625925541E0,-2.878565550E0,8.165445939E0
1.340488449E0,-4.187439680E-1,7.618747234E0,-3.125026464E0,8.245389399E0
1.342851887E0,-3.302095234E-1,7.611568928E0,-3.371487141E0,8.331383163E0
1.345215376E0,-2.273181528E-1,7.575676441E0,-3.661018610E0,8.416983091E0
1.347578814E0,-5.024927482E-2,7.530212879E0,-3.969692707E0,8.512643020E0
1.349942251E0,1.507478207E-1,7.467999458E0,-4.194618225E0,8.566712489E0
1.352305741E0,4.163511395E-1,7.353144169E0,-4.350151539E0,8.553706556E0
1.354669178E0,6.604190469E-1,7.200003147E0,-4.522434711E0,8.528107314E0
1.357032616E0,8.805587292E-1,7.075576782E0,-4.687539577E0,8.533006373E0
1.359396105E0,1.050449133E0,6.972685337E0,-4.761716843E0,8.508568122E0
1.361759543E0,1.167697430E0,6.881757736E0,-4.843072891E0,8.495731979E0
1.364123032E0,1.253839016E0,6.750152588E0,-4.955535889E0,8.467231435E0
1.366486470E0,1.390229940E0,6.630511761E0,-5.039284706E0,8.443388884E0
1.368849907E0,1.545763373E0,6.506084919E0,-5.111069202E0,8.416742468E0
1.371213397E0,1.720439434E0,6.386443615E0,-5.120640278E0,8.364659631E0
1.373576834E0,1.880758643E0,6.269195557E0,-5.151747227E0,8.329499714E0
1.375940272E0,2.079362869E0,6.135197163E0,-5.170889854E0,8.288696885E0
1.378303762E0,2.258824587E0,6.041877270E0,-5.185246468E0,8.276070951E0
1.380667199E0,2.423929453E0,5.936593056E0,-5.199603558E0,8.255570741E0
1.383030637E0,2.605783939E0,5.826523304E0,-5.206781864E0,8.237054154E0
1.385394126E0,2.785245657E0,5.747560024E0,-5.204389095E0,8.238792718E0
1.387757564E0,2.976671457E0,5.680561066E0,-5.230710506E0,8.275849164E0
1.390121001E0,3.148954630E0,5.599205017E0,-5.273781300E0,8.311424744E0
1.392484491E0,3.306880951E0,5.520241737E0,-5.321637630E0,8.350350743E0
1.394847928E0,3.462414265E0,5.477170944E0,-5.379065514E0,8.421523609E0
1.397211366E0,3.589233875E0,5.431707382E0,-5.441278458E0,8.484901658E0
1.399574855E0,3.682554007E0,5.414957523E0,-5.517848969E0,8.563271935E0
1.401938293E0,3.761517286E0,5.379065514E0,-5.601597786E0,8.629093571E0
1.404301730E0,3.840480328E0,5.379065514E0,-5.675775528E0,8.711949425E0
1.406665220E0,3.909872293E0,5.369493961E0,-5.766702652E0,8.796216586E0
1.409028657E0,3.952943087E0,5.367101192E0,-5.843272686E0,8.864274925E0
1.411392147E0,3.979264021E0,5.369493961E0,-5.907878876E0,8.920148001E0
1.413755584E0,4.000799656E0,5.359922886E0,-5.979663849E0,8.971708364E0
1.416119022E0,4.031906128E0,5.359922886E0,-6.049055576E0,9.031949609E0
1.418482512E0,4.051048756E0,5.347958565E0,-6.101697922E0,9.068758149E0
1.420845949E0,4.051048756E0,5.340780258E0,-6.159125328E0,9.103282627E0
1.423209387E0,4.051048756E0,5.367101192E0,-6.211767673E0,9.154388503E0
1.425572876E0,4.048655987E0,5.374279499E0,-6.266802311E0,9.194960937E0
1.427936314E0,4.034298897E0,5.393422127E0,-6.345765591E0,9.253826817E0
1.430299751E0,3.979264021E0,5.429314613E0,-6.317051888E0,9.231313226E0
1.432663241E0,3.933800459E0,5.429314613E0,-6.271588326E0,9.180689699E0
1.435026678E0,3.893122435E0,5.453242779E0,-6.202196121E0,9.130251684E0
1.437390116E0,3.838087559E0,5.501099110E0,-6.142375946E0,9.095151994E0
1.439753605E0,3.804588079E0,5.546562672E0,-6.111268997E0,9.087731107E0
1.442117043E0,3.778266907E0,5.565705299E0,-6.061019897E0,9.054741216E0
1.444480480E0,3.771088600E0,5.606383324E0,-5.994020939E0,9.032216241E0
1.446843970E0,3.771088600E0,5.642275810E0,-5.907878876E0,8.997745182E0
1.449207407E0,3.761517286E0,5.687739372E0,-5.807380676E0,8.956844410E0
1.451570897E0,3.747160196E0,5.749952793E0,-5.704489231E0,8.924369112E0
1.453934334E0,3.718446493E0,5.783452511E0,-5.639883041E0,8.892887494E0
1.456297772E0,3.663411379E0,5.838487148E0,-5.565705299E0,8.859209366E0
1.458661262E0,3.591626883E0,5.883950710E0,-5.424529076E0,8.771896905E0
1.461024699E0,3.548556089E0,5.922235966E0,-5.302495003E0,8.705261766E0
1.463388137E0,3.529413462E0,5.962913990E0,-5.228317261E0,8.680345847E0
1.465751626E0,3.507878065E0,6.010770321E0,-5.170889854E0,8.670217428E0
1.468115064E0,3.471985579E0,6.049055576E0,-5.115854740E0,8.649724096E0
1.470478501E0,3.469592810E0,6.106483459E0,-5.058426857E0,8.655339206E0
1.472841991E0,3.431307554E0,6.187839508E0,-5.012963295E0,8.671391486E0
1.475205428E0,3.404986620E0,6.221338749E0,-4.977071285E0,8.664307721E0
1.477568918E0,3.366701365E0,6.283552170E0,-4.924428940E0,8.664162183E0
1.479932355E0,3.342773199E0,6.338587284E0,-4.881358147E0,8.670610058E0
1.482295793E0,3.309273720E0,6.386443615E0,-4.838287354E0,8.668735728E0
1.484659230E0,3.290131092E0,6.434299946E0,-4.788038254E0,8.668938154E0
1.487022720E0,3.290131092E0,6.453442574E0,-4.742574692E0,8.658169458E0
1.489386157E0,3.261417150E0,6.472585201E0,-4.752145767E0,8.666838548E0
1.491749595E0,3.256631613E0,6.522834301E0,-4.716253281E0,8.683090567E0
1.494113084E0,3.285345554E0,6.546762943E0,-4.646861553E0,8.674498414E0
1.496476522E0,3.299702406E0,6.585047722E0,-4.613361835E0,8.691029680E0
1.498840012E0,3.282952785E0,6.613761902E0,-4.591826439E0,8.695084561E0
1.501203449E0,3.275774240E0,6.637690067E0,-4.582255363E0,8.705555153E0
1.503566887E0,3.266202927E0,6.649653912E0,-4.579862595E0,8.709828936E0
1.505930376E0,3.266202927E0,6.683153629E0,-4.594219685E0,8.742967374E0
1.508293814E0,3.270988464E0,6.716653347E0,-4.613361835E0,8.780427390E0
1.510657251E0,3.297309637E0,6.745367050E0,-4.632504463E0,8.822263037E0
1.513020741E0,3.285345554E0,6.745367050E0,-4.656432629E0,8.830392793E0
1.515384178E0,3.292523861E0,6.793223381E0,-4.670789719E0,8.877210929E0
1.517747616E0,3.280559778E0,6.817151546E0,-4.704289436E0,8.908757869E0
1.520111105E0,3.285345554E0,6.867401123E0,-4.744967461E0,8.970474335E0
1.522474543E0,3.292523861E0,6.891329288E0,-4.780859470E0,9.010424519E0
1.524837980E0,3.290131092E0,6.958328247E0,-4.857429981E0,9.101533971E0
1.527201470E0,3.290131092E0,6.979863644E0,-4.929214478E0,9.156452067E0
1.529564907E0,3.270988464E0,6.982256413E0,-5.099104881E0,9.244032709E0
1.531928397E0,3.275774240E0,7.046862602E0,-5.201996326E0,9.351456314E0
1.534291834E0,3.273381472E0,7.066005230E0,-5.280959606E0,9.409143985E0
1.536655272E0,3.263810158E0,7.094718933E0,-5.381458282E0,9.484070156E0
1.539018762E0,3.266202927E0,7.118647575E0,-5.513063431E0,9.577948280E0
1.541382199E0,3.254238844E0,7.166503906E0,-5.649454117E0,9.688404436E0
1.543745637E0,3.244667530E0,7.178467751E0,-5.795416355E0,9.779832174E0
1.546109126E0,3.290131092E0,7.171289444E0,-5.931807518E0,9.871104058E0
1.548472564E0,3.335594654E0,7.188039303E0,-6.061019897E0,9.976475475E0
1.550836001E0,3.371487141E0,7.176074982E0,-6.187839508E0,1.005745174E1
1.553199491E0,3.426522017E0,7.164111137E0,-6.314659119E0,1.014595788E1
1.555562928E0,3.474378586E0,7.154539585E0,-6.443871498E0,1.023631883E1
1.557926366E0,3.543770313E0,7.111468792E0,-6.537191391E0,1.028912862E1
1.560289855E0,3.629911900E0,7.068397999E0,-6.594619274E0,1.032605995E1
1.562653293E0,3.735196114E0,7.046862602E0,-6.642475605E0,1.037942410E1
1.565016730E0,3.869194269E0,7.042077065E0,-6.664011002E0,1.043889632E1
1.567380220E0,3.969692707E0,7.020541668E0,-6.649653912E0,1.045295952E1
1.569743657E0,4.089334011E0,7.015756130E0,-6.604190350E0,1.046703477E1
1.572107147E0,4.235296249E0,6.979863644E0,-6.527620316E0,1.045304060E1
1.574470584E0,4.369294167E0,6.982256413E0,-6.436692715E0,1.045340371E1
1.576834022E0,4.491328239E0,6.987041950E0,-6.331408501E0,1.044401830E1
1.579197512E0,4.634897232E0,6.979863644E0,-6.245266914E0,1.045007788E1
1.581560949E0,4.795216560E0,6.972685337E0,-6.154339790E0,1.046366766E1
1.583924387E0,4.945964336E0,6.994220734E0,-6.039484501E0,1.048127187E1
1.586287876E0,5.130211830E0,7.013363361E0,-5.948556900E0,1.053051130E1
1.588651314E0,5.312066078E0,7.051648140E0,-5.903093338E0,1.062027770E1
1.591014751E0,5.503491879E0,7.075576782E0,-5.848058701E0,1.070289681E1
1.593378241E0,5.704489231E0,7.097112179E0,-5.793023586E0,1.079209530E1
1.595741678E0,5.903093338E0,7.128218651E0,-5.752345562E0,1.089713226E1
1.598105116E0,6.116054535E0,7.154539585E0,-5.747560024E0,1.102850878E1
1.600468605E0,6.314659119E0,7.219145775E0,-5.682953835E0,1.114840571E1
1.602832043E0,6.494120598E0,7.243073940E0,-5.546562672E0,1.119821771E1
1.605195532E0,6.695117950E0,7.298109055E0,-5.455635548E0,1.130711985E1
1.607558970E0,6.903293133E0,7.360322475E0,-5.414957523E0,1.145214251E1
1.609922407E0,7.077969551E0,7.393822193E0,-5.422136307E0,1.158299710E1
1.612285897E0,7.250252724E0,7.434499741E0,-5.379065514E0,1.169496886E1
1.614649334E0,7.415357590E0,7.472784996E0,-5.309673309E0,1.179078769E1
1.617012772E0,7.532605648E0,7.513463020E0,-5.276174068E0,1.187561734E1
1.619376262E0,7.604390144E0,7.532605648E0,-5.230710506E0,1.191332152E1
1.621739699E0,7.640282631E0,7.601997375E0,-5.204389095E0,1.196870706E1
1.624103137E0,7.633104324E0,7.657032490E0,-5.185246468E0,1.199088025E1
1.626466626E0,7.611568928E0,7.659425259E0,-5.166104317E0,1.197043903E1
1.628830064E0,7.578069210E0,7.664210796E0,-5.156532764E0,1.194809986E1
1.631193501E0,7.546962738E0,7.642675400E0,-5.137390137E0,1.190629713E1
1.633556991E0,7.542177200E0,7.592426300E0,-5.146961689E0,1.187520899E1
1.635920428E0,7.549355507E0,7.544569969E0,-5.149354458E0,1.185028084E1
1.638283918E0,7.544569969E0,7.444071293E0,-5.149354458E0,1.178348780E1
1.640647355E0,7.527820110E0,7.329215527E0,-5.134997368E0,1.169417264E1
1.643010793E0,7.489534855E0,7.192824841E0,-5.125426292E0,1.158014923E1
1.645374282E0,7.434499741E0,7.032505512E0,-5.101497650E0,1.143473648E1
1.647737720E0,7.367500782E0,6.879364967E0,-5.065605640E0,1.128122735E1
1.650101157E0,7.324429989E0,6.707081795E0,-5.039284706E0,1.113672354E1
1.652464647E0,7.274180889E0,6.496513367E0,-5.022534847E0,1.097015268E1
1.654828084E0,7.219145775E0,6.297909260E0,-5.005784988E0,1.080914474E1
1.657191522E0,7.149754047E0,6.087340832E0,-4.993820667E0,1.063545703E1
1.659555012E0,7.109076023E0,5.831308842E0,-4.996213913E0,1.046447697E1
1.661918449E0,7.137789726E0,5.525027275E0,-5.024927616E0,1.033072438E1
1.664281887E0,7.121040344E0,5.290530682E0,-5.039284706E0,1.020261343E1
1.666645376E0,7.056434155E0,5.036891460E0,-4.977071285E0,9.996738325E0
1.669008814E0,6.991827965E0,4.761716843E0,-4.955535889E0,9.803924802E0
1.671372303E0,6.934400082E0,4.488935471E0,-4.977071285E0,9.644049187E0
1.673735741E0,6.874579430E0,4.187439442E0,-5.046463013E0,9.500593684E0
1.676099178E0,6.807580471E0,3.890729666E0,-5.099104881E0,9.353170574E0
1.678462668E0,6.774080753E0,3.586841106E0,-5.132604599E0,9.224815941E0
1.680826105E0,6.697510719E0,3.287738323E0,-5.182853699E0,9.084483782E0
1.683189543E0,6.635297298E0,3.017349243E0,-5.178068161E0,8.941138438E0
1.685553032E0,6.551548481E0,2.830709219E0,-5.166104317E0,8.810467411E0
1.687916470E0,6.568298340E0,2.533999205E0,-5.185246468E0,8.743596284E0
1.690279907E0,6.656832695E0,2.242074728E0,-5.254638672E0,8.772203155E0
1.692643397E0,6.745367050E0,2.019542217E0,-5.316852093E0,8.823119833E0
1.695006834E0,6.809973240E0,1.808973908E0,-5.407779217E0,8.882128021E0
1.697370272E0,6.838686943E0,1.667797327E0,-5.462814331E0,8.910192335E0
1.699733762E0,6.929614544E0,1.564906001E0,-5.527420521E0,9.001159155E0
1.702097199E0,7.101897717E0,1.450050473E0,-5.627918720E0,9.176767768E0
1.704460637E0,7.264609337E0,1.375872970E0,-5.737988472E0,9.359064427E0
1.706824126E0,7.439285755E0,1.397408366E0,-5.797809124E0,9.534689996E0
1.709187564E0,7.613961697E0,1.502692580E0,-5.895915031E0,9.746399939E0
1.711551053E0,7.733603001E0,1.775474429E0,-5.900700569E0,9.888336161E0
1.713914491E0,7.683353424E0,2.155933142E0,-5.836094379E0,9.886453619E0
1.716277928E0,7.599604607E0,2.672782898E0,-5.747560024E0,9.896070171E0
1.718641418E0,7.369893551E0,3.299702406E0,-5.647061348E0,9.853561224E0
1.721004855E0,6.960721016E0,4.113262177E0,-5.544169903E0,9.803488293E0
1.723368293E0,6.568298340E0,5.032105923E0,-5.268995285E0,9.809533343E0
1.725731782E0,6.125626087E0,6.061019897E0,-4.938786030E0,9.932314162E0
1.728095220E0,5.630311489E0,7.168896675E0,-4.558327198E0,1.019175323E1
1.730458709E0,5.142175674E0,8.343772888E0,-4.110869408E0,1.062825310E1
1.732822147E0,4.682754040E0,9.602396965E0,-3.543770313E0,1.125577722E1
1.735185584E0,4.254438877E0,1.094237804E1,-2.842673302E0,1.207959763E1
1.737549074E0,3.852444410E0,1.241874981E1,-2.098505497E0,1.317081623E1
1.739912512E0,3.531806231E0,1.394537067E1,-1.213161111E0,1.443671633E1
1.742275949E0,3.321237803E0,1.550788403E1,-2.488535494E-1,1.586149475E1
1.744639439E0,3.213560820E0,1.706800461E1,6.269195080E-1,1.737920546E1
1.747002876E0,3.218346357E0,1.858266068E1,1.263410330E0,1.890156704E1
1.749366314E0,3.278167009E0,2.009492493E1,1.543370605E0,2.041897107E1
1.751729803E0,3.357130051E0,2.157368851E1,1.380658627E0,2.187694166E1
1.754093241E0,3.340380430E0,2.295674133E1,9.116654396E-1,2.321640041E1
1.756456678E0,3.302095175E0,2.408136749E1,1.746760458E-1,2.430733644E1
1.758820168E0,3.227917671E0,2.509831619E1,-5.742774606E-1,2.531155315E1
1.761183605E0,3.177668571E0,2.590469742E1,-1.251446247E0,2.612885462E1
1.763547043E0,3.230310678E0,2.649333191E1,-1.825723648E0,2.675191226E1
1.765910532E0,3.476771355E0,2.678047180E1,-2.261217356E0,2.709971795E1
1.768273970E0,3.814159393E0,2.681636429E1,-2.447857618E0,2.719663973E1
1.770637407E0,4.297509670E0,2.648854637E1,-2.438286304E0,2.694544337E1
1.773000897E0,5.044070244E0,2.571566582E1,-2.318645239E0,2.630806395E1
1.775364334E0,6.075376511E0,2.440439796E1,-2.110469580E0,2.523764889E1
1.777727824E0,7.152146816E0,2.231785774E1,-1.610369682E0,2.349113171E1
1.780091262E0,8.075776100E0,1.985803604E1,-9.906286001E-1,2.146022134E1
1.782454699E0,8.846264839E0,1.747478294E1,-3.708875179E-1,1.958984426E1
1.784818189E0,9.477970123E0,1.528056526E1,1.746760458E-1,1.798216072E1
1.787181626E0,9.956535339E0,1.328016567E1,5.790630579E-1,1.660815192E1
1.789545064E0,1.022692394E1,1.147119141E1,8.973084688E-1,1.539426413E1
1.791908553E0,1.030827999E1,9.868000984E0,1.162911773E0,1.431748734E1
1.794271991E0,1.018385315E1,8.365307808E0,1.354337573E0,1.324852709E1
1.796635428E0,9.934999466E0,6.982256413E0,1.488335729E0,1.223402069E1
1.798998918E0,9.576076508E0,5.730810165E0,1.581655741E0,1.127142676E1
1.801362355E0,9.131011009E0,4.555934429E0,1.691725612E0,1.034378249E1
1.803725845E0,8.714659691E0,3.445664644E0,1.753939033E0,9.533845001E0
1.806089282E0,8.403593063E0,2.435893536E0,1.792224169E0,8.931182518E0
1.808452720E0,8.104490280E0,1.505085468E0,1.794616938E0,8.436154036E0
1.810816209E0,7.872386456E0,6.963114142E-1,1.741974831E0,8.092823636E0
1.813179647E0,7.719245911E0,-2.632104978E-2,1.710868239E0,7.906612445E0
1.815543084E0,7.590033531E0,-6.867401004E-1,1.684547186E0,7.804993286E0
1.817906574E0,7.451249599E0,-1.217946768E0,1.629512191E0,7.723977272E0
1.820270012E0,7.293323517E0,-1.634297848E0,1.481157184E0,7.619535680E0
1.822633449E0,7.080362320E0,-1.942971945E0,1.296909928E0,7.455779364E0
1.824996939E0,6.836294174E0,-2.115255117E0,9.284151793E-1,7.216036100E0
1.827360376E0,6.465406895E0,-2.045863390E0,4.713860750E-1,6.797738459E0
1.829723814E0,5.737988472E0,-1.619940877E0,-6.939185411E-2,5.962678541E0
1.832087303E0,4.893322468E0,-8.877372146E-1,-6.149554253E-1,5.011072970E0
1.834450741E0,4.024727821E0,-2.153540403E-2,-1.105484009E0,4.173846272E0
1.836814230E0,3.251846075E0,9.020941257E-1,-1.469193101E0,3.680598467E0
1.839177668E0,2.581855536E0,1.773081541E0,-1.715653777E0,3.571171242E0
1.841541105E0,1.998006940E0,2.605783939E0,-1.808973908E0,3.748936952E0
1.843904595E0,1.533799291E0,3.445664644E0,-1.746760488E0,4.156478955E0
1.846268032E0,1.162911773E0,4.237689018E0,-1.564906001E0,4.664686785E0
1.848631470E0,8.805587292E-1,5.010570526E0,-1.237089276E0,5.235607945E0
1.850994959E0,7.250252366E-1,5.771488190E0,-7.920243144E-1,5.870522978E0
1.853358397E0,6.987041831E-1,6.501298904E0,-2.512463629E-1,6.543561699E0
1.855721887E0,6.771687865E-1,7.281359196E0,3.517449200E-1,7.321234444E0
1.858085324E0,7.130611539E-1,8.035098076E0,1.043270707E0,8.133859543E0
1.860448762E0,7.585247755E-1,8.762516975E0,1.670190215E0,8.952463289E0
1.862812199E0,8.111668825E-1,9.480362892E0,2.277967215E0,9.783885062E0
1.865175689E0,9.164510965E-1,1.020778179E1,2.852244616E0,1.063832652E1
1.867539126E0,9.762716293E-1,1.087537861E1,3.424129248E0,1.144340978E1
1.869902616E0,1.038485050E0,1.153340530E1,3.960121393E0,1.223848236E1
1.872266053E0,1.060020447E0,1.211964703E1,4.450650215E0,1.295445000E1
1.874629491E0,1.024128079E0,1.265324593E1,4.878965378E0,1.359991816E1
1.876992980E0,9.308080077E-1,1.314856052E1,5.249852657E0,1.418844602E1
1.879356418E0,7.992027402E-1,1.360319710E1,5.577669621E0,1.472399724E1
1.881719855E0,6.340979934E-1,1.397408390E1,5.874379635E0,1.517186334E1
1.884083345E0,4.331009090E-1,1.432822227E1,6.130411625E0,1.559062143E1
1.886446782E0,2.153540403E-1,1.459143257E1,6.340980053E0,1.591113792E1
1.888810220E0,1.674975827E-2,1.479003716E1,6.484549522E0,1.614914432E1
1.891173709E0,-1.459621787E-1,1.492882061E1,6.530013084E0,1.629515451E1
1.893537147E0,-2.632105052E-1,1.500778389E1,6.436692715E0,1.633198917E1
1.895900637E0,-2.967100143E-1,1.501735497E1,6.264409542E0,1.627426846E1
1.898264074E0,-3.373879790E-1,1.496710587E1,5.984449387E0,1.612270831E1
1.900627512E0,-3.613162339E-1,1.485464287E1,5.666203976E0,1.590273032E1
1.902991001E0,-3.469592929E-1,1.464885998E1,5.273781300E0,1.557312585E1
1.905354439E0,-3.086741269E-1,1.437368584E1,4.809573650E0,1.516014917E1
1.907717876E0,-2.679961324E-1,1.404826164E1,4.278367043E0,1.468774665E1
1.910081366E0,-1.890329868E-1,1.364387512E1,3.744767427E0,1.414971183E1
1.912444803E0,-1.316052526E-1,1.320120239E1,3.201596737E0,1.358452378E1
1.914808241E0,-5.982056633E-2,1.273460197E1,2.658426046E0,1.300926189E1
1.917171730E0,3.349951655E-2,1.227039433E1,2.124826431E0,1.245305531E1
1.919535168E0,9.571290761E-2,1.176550865E1,1.596012712E0,1.187365198E1
1.921898657E0,1.363908947E-1,1.132283688E1,1.110269666E0,1.137795835E1
1.924262095E0,1.411765367E-1,1.088255692E1,6.723831892E-1,1.090422281E1
1.926625532E0,1.339980662E-1,1.049731255E1,3.062812984E-1,1.050263464E1
1.928989022E0,1.651047617E-1,1.014796066E1,-4.785645287E-3,1.014930481E1
1.931352459E0,1.674975902E-1,9.822537422E0,-2.775674164E-1,9.827885862E0
1.933715897E0,1.627119333E-1,9.513862610E0,-4.977070987E-1,9.528261609E0
1.936079387E0,1.028913707E-1,9.260223389E0,-6.723831892E-1,9.285172211E0
1.938442824E0,7.417750359E-2,9.032905579E0,-8.063812256E-1,9.069130949E0
1.940806262E0,5.742774159E-2,8.810373306E0,-8.925228715E-1,8.855652027E0
1.943169751E0,2.632104978E-2,8.628518105E0,-9.762716293E-1,8.683612369E0
1.945533189E0,1.196411345E-2,8.422736168E0,-1.062413216E0,8.489484645E0
1.947896626E0,-1.674975827E-2,8.250452042E0,-1.122233868E0,8.326442716E0
1.950260116E0,4.785645287E-3,8.104490280E0,-1.184447169E0,8.190586102E0
1.952623553E0,1.674975827E-2,7.963313580E0,-1.241874933E0,8.059584175E0
1.954987043E0,5.264209956E-2,7.829315662E0,-1.292124271E0,7.935397915E0
1.957350480E0,1.028913707E-1,7.712067604E0,-1.308874011E0,7.823025281E0
1.959713918E0,1.531406492E-1,7.616354465E0,-1.339980721E0,7.734846846E0
1.962077407E0,2.129612118E-1,7.532605648E0,-1.361516118E0,7.657625380E0
1.964440845E0,2.321037948E-1,7.463213921E0,-1.368694544E0,7.591229080E0
1.966804282E0,2.775674164E-1,7.444071293E0,-1.373480201E0,7.574806199E0
1.969167772E0,3.469592929E-1,7.441678524E0,-1.380658627E0,7.576620503E0
1.971531209E0,3.996013701E-1,7.465606689E0,-1.418943882E0,7.609754677E0
1.973894647E0,4.331009090E-1,7.472784996E0,-1.457229018E0,7.625851323E0
1.976258137E0,4.522434771E-1,7.503891945E0,-1.495514154E0,7.664821007E0
1.978621574E0,4.785645306E-1,7.530212879E0,-1.533799291E0,7.699718844E0
1.980985064E0,5.000999570E-1,7.563712597E0,-1.581655741E0,7.743480038E0
1.983348501E0,5.647061467E-1,7.601997375E0,-1.591227055E0,7.787249878E0
1.985711939E0,6.245267391E-1,7.654639721E0,-1.617548108E0,7.848567053E0
1.988075428E0,7.082754970E-1,7.716853142E0,-1.624726534E0,7.917778281E0
1.990438866E0,8.087740541E-1,7.764709473E0,-1.643869162E0,7.977915422E0
1.992802303E0,9.332008362E-1,7.812565804E0,-1.682154298E0,8.045911466E0
1.995165793E0,1.071984529E0,7.881958008E0,-1.746760488E0,8.144052128E0
1.997529230E0,1.701296926E0,7.848458290E0,-1.978864312E0,8.270949929E0
1.999892668E0,4.673182487E0,7.322037220E0,-3.895515203E0,9.519763774E0
2.002256157E0,5.522634506E0,7.807780266E0,-5.376672268E0,1.097130481E1
2.004619595E0,3.701696634E0,8.877371788E0,-4.082155228E0,1.044864963E1
2.006983032E0,3.440878868E0,9.233902931E0,-3.641875982E0,1.050561142E1
2.009346522E0,2.708675146E0,9.693324089E0,-3.175275564E0,1.055366419E1
2.011709959E0,1.404586911E0,9.841679573E0,-1.840080619E0,1.011026300E1
2.014073449E0,1.124626637E0,9.789037704E0,-1.048056364E0,9.909009355E0
2.016436887E0,2.115255117E0,9.690931320E0,-1.718046665E0,1.006678392E1
2.018800324E0,1.926222205E0,9.879964828E0,-1.584048629E0,1.018986001E1
2.021163814E0,1.435693622E0,9.901499748E0,-7.800601721E-1,1.003540768E1
2.023527251E0,2.275574446E0,9.566504478E0,-1.057627559E0,9.890137666E0
2.025890689E0,1.832902193E0,9.667003632E0,-5.934200287E-1,9.857110986E0
2.028254178E0,8.614161611E-1,9.927821159E0,8.638089895E-1,1.000249153E1
2.030617616E0,2.179861546E0,9.521040916E0,4.139583111E-1,9.776163766E0
2.032981105E0,3.182454109E0,9.209974289E0,-2.871387303E-1,9.748542928E0
2.035344543E0,1.452443361E0,9.556933403E0,1.787438512E0,9.830539366E0
2.037707980E0,6.197410822E-1,9.454042435E0,3.570091486E0,1.012465064E1
2.040071470E0,1.299302697E0,9.346364975E0,3.354737282E0,1.001483839E1
2.042434907E0,2.627319336E0,9.269794464E0,2.019542217E0,9.844310391E0
2.044798345E0,2.737389088E0,9.573683739E0,1.514656782E0,1.007188684E1
2.047161834E0,1.854437590E0,9.997213364E0,2.201396942E0,1.040333419E1
2.049525272E0,1.071984529E0,1.021735287E1,2.926422119E0,1.068210639E1
2.051888709E0,7.106683254E-1,1.036810017E1,3.249453068E0,1.088859476E1
2.054252199E0,1.100698471E0,1.036092186E1,2.639283419E0,1.074830479E1
2.056615637E0,9.714859724E-1,1.045663452E1,2.416750908E0,1.077616237E1
2.058979074E0,1.674975827E-2,1.060977554E1,3.079562664E0,1.104768409E1
2.061342564E0,-1.148554921E0,1.075334454E1,4.110869408E0,1.156947900E1
2.063706001E0,-1.581655741E0,1.071027374E1,4.627718925E0,1.177401295E1
2.066069491E0,-8.829515576E-1,1.037527943E1,3.749552965E0,1.106730202E1
2.068432928E0,-8.087740541E-1,1.027238750E1,3.129812002E0,1.076901963E1
2.070796366E0,-1.454836130E0,1.035135078E1,3.378665686E0,1.098555383E1
2.073159855E0,-1.787438512E0,1.028913784E1,3.364308596E0,1.097177589E1
2.075523293E0,-1.969292998E0,1.027238750E1,3.089133978E0,1.090609044E1
2.077886730E0,-2.081755638E0,1.029870892E1,2.677568436E0,1.084280797E1
2.080250220E0,-2.143969059E0,1.030588722E1,2.323430777E0,1.077990006E1
2.082613657E0,-2.062613010E0,1.023649502E1,1.938186288E0,1.062058232E1
2.084977095E0,-2.012363911E0,1.014556789E1,1.373480201E0,1.043401190E1
2.087340584E0,-2.651247501E0,1.036092186E1,1.409372568E0,1.078722143E1
2.089704022E0,-3.282952785E0,1.051645565E1,1.849651933E0,1.117116067E1
2.092067512E0,-3.055634499E0,1.034895802E1,1.533799291E0,1.089909971E1
2.094430949E0,-2.665604353E0,1.015035343E1,7.489534616E-1,1.052121916E1
2.096794387E0,-2.909672260E0,1.020778179E1,5.886343718E-1,1.063068635E1
2.099157876E0,-3.268595695E0,1.031545830E1,6.819544435E-1,1.084239178E1
2.101521314E0,-3.311666489E0,1.032024384E1,6.077769399E-1,1.085559582E1
2.103884751E0,-3.213560820E0,1.025085258E1,4.139583111E-1,1.075073548E1
2.106248241E0,-3.084348440E0,1.016471100E1,1.938186288E-1,1.062412917E1
2.108611678E0,-2.952743053E0,1.010488987E1,-1.674975827E-2,1.052747697E1
2.110975116E0,-2.792423964E0,1.006899738E1,-2.656033039E-1,1.045241049E1
2.113338605E0,-2.622533560E0,1.002831936E1,-5.048855543E-1,1.037785049E1
2.115702043E0,-2.435893536E0,1.000917721E1,-7.202396393E-1,1.032646846E1
2.118065532E0,-2.268395901E0,9.973284721E0,-8.949156404E-1,1.026707856E1
2.120428970E0,-2.103291035E0,9.949356079E0,-1.062413216E0,1.022459004E1
2.122792407E0,-1.926222205E0,9.923035622E0,-1.158126116E0,1.017439060E1
2.125155897E0,-1.718046665E0,9.942177773E0,-1.246660590E0,1.016625525E1
2.127519334E0,-1.466800332E0,9.992427826E0,-1.332802176E0,1.018707410E1
2.129882772E0,-1.213161111E0,1.002114105E1,-1.414158225E0,1.019288337E1
2.132246262E0,-9.714859724E-1,1.004985523E1,-1.497906923E0,1.020720825E1
2.134609699E0,-7.322037220E-1,1.004985523E1,-1.579262972E0,1.019949920E1
2.136973137E0,-3.972085714E-1,1.006660461E1,-1.648654819E0,1.020844581E1
2.139336626E0,-1.196411345E-2,1.008574772E1,-1.773081541E0,1.024042325E1
2.141700064E0,3.756731451E-1,1.005703354E1,-1.935793519E0,1.024852919E1
2.144063501E0,8.063812256E-1,1.003549862E1,-2.093719721E0,1.028324586E1
2.146426991E0,1.272981644E0,1.004267693E1,-2.215753794E0,1.036269304E1
2.148790428E0,1.725225091E0,1.004746246E1,-2.311466694E0,1.045326656E1
2.151153918E0,2.189432621E0,1.004506969E1,-2.428714991E0,1.056388645E1
2.153517355E0,2.610569477E0,1.003789139E1,-2.514856577E0,1.067233995E1
2.155880793E0,3.019742250E0,1.001396275E1,-2.598605394E0,1.077733933E1
2.158244282E0,3.385843992E0,9.966106415E0,-2.677568436E0,1.086078217E1
2.160607720E0,3.661018610E0,9.899106979E0,-2.675175667E0,1.088815600E1
2.162971157E0,3.931407690E0,9.834501266E0,-2.617748022E0,1.090990313E1
2.165334647E0,4.170690060E0,9.729216576E0,-2.467000246E0,1.086914905E1
2.167698084E0,4.390829563E0,9.631111145E0,-2.230110645E0,1.081716597E1
2.170061574E0,4.527220249E0,9.533005714E0,-1.933400750E0,1.072902417E1
2.172425012E0,4.587040901E0,9.422935486E0,-1.586441398E0,1.059950252E1
2.174788449E0,4.567898273E0,9.298508644E0,-1.208375454E0,1.043015479E1
2.177151939E0,4.433900356E0,9.200403214E0,-8.542376757E-1,1.024873717E1
2.179515376E0,4.197010994E0,9.087940216E0,-5.335994363E-1,1.002448438E1
2.181878814E0,3.936193228E0,8.999405861E0,-2.632105052E-1,9.826098043E0
2.184242303E0,3.608376503E0,8.915657043E0,-6.699903309E-2,9.618409971E0
2.186605741E0,3.242274761E0,8.791230202E0,4.785645381E-2,9.370184861E0
2.188969178E0,2.883351326E0,8.673981667E0,2.632104978E-2,9.140698311E0
2.191332668E0,2.538784742E0,8.561519623E0,-2.392822644E-3,8.930008508E0
2.193696105E0,2.220539331E0,8.441878319E0,-7.178468257E-2,8.729333165E0
2.196059595E0,1.962114573E0,8.372486115E0,-1.531406492E-1,8.600690053E0
2.198423032E0,1.737189293E0,8.300702095E0,-2.057827413E-1,8.483031796E0
2.200786470E0,1.569691658E0,8.250452042E0,-2.656033039E-1,8.402644578E0
2.203149959E0,1.493121386E0,8.214560509E0,-3.086741269E-1,8.354860594E0
2.205513397E0,1.445264935E0,8.221738815E0,-3.302095234E-1,8.354329309E0
2.207876834E0,1.426122308E0,8.243273735E0,-3.589234054E-1,8.373422999E0
2.210240324E0,1.399801254E0,8.276773453E0,-3.732803464E-1,8.402604391E0
2.212603762E0,1.414158225E0,8.307880402E0,-3.876372576E-1,8.436289640E0
2.214967199E0,1.438086390E0,8.374878883E0,-4.450650215E-1,8.509099344E0
2.217330689E0,1.459621787E0,8.425128937E0,-5.000999570E-1,8.565243332E0
2.219694126E0,1.481157184E0,8.487341881E0,-5.718846321E-1,8.634572997E0
2.222057616E0,1.481157184E0,8.583054543E0,-6.484549642E-1,8.734022311E0
2.224421053E0,1.488335729E0,8.659625053E0,-7.178468108E-1,8.815869404E0
2.226784491E0,1.490728498E0,8.757730484E0,-8.279166222E-1,8.922194832E0
2.229147980E0,1.481157184E0,8.860622406E0,-9.284151793E-1,9.031412446E0
2.231511418E0,1.473978758E0,8.997013092E0,-1.021735311E0,9.174028614E0
2.233874907E0,1.452443361E0,9.121439934E0,-1.122233868E0,9.304282188E0
2.236238345E0,1.426122308E0,9.257830620E0,-1.225125194E0,9.446808157E0
2.238601782E0,1.406979680E0,9.401400566E0,-1.323230863E0,9.597753088E0
2.240965220E0,1.385444283E0,9.542576790E0,-1.411765337E0,9.745425030E0
2.243328709E0,1.375872970E0,9.626325607E0,-1.517049551E0,9.841778826E0
2.245692147E0,1.361516118E0,9.717252731E0,-1.622333765E0,9.945385545E0
2.248055637E0,1.337587833E0,9.820143700E0,-1.679761529E0,1.005216207E1
2.250419074E0,1.296909928E0,9.863214493E0,-1.682154298E0,1.008933192E1
2.252782512E0,1.261017561E0,9.901499748E0,-1.667797327E0,1.011985230E1
2.255146001E0,1.205982566E0,9.923035622E0,-1.596012712E0,1.012266203E1
2.257509439E0,1.138983607E0,9.958928108E0,-1.488335729E0,1.013373949E1
2.259872876E0,1.038485050E0,9.958928108E0,-1.359123230E0,1.010474721E1
2.262236366E0,9.643075466E-1,9.978070259E0,-1.182054400E0,1.009400950E1
2.264599803E0,8.805587292E-1,9.961320877E0,-9.882357717E-1,1.004887592E1
2.266963293E0,7.609176040E-1,9.956535339E0,-7.633104324E-1,1.001470091E1
2.269326730E0,6.077769399E-1,9.946963310E0,-5.359922647E-1,9.979917816E0
2.271690168E0,4.666004181E-1,9.937392235E0,-2.823530734E-1,9.952346640E0
2.274053657E0,3.062812984E-1,9.894321442E0,-1.674975827E-2,9.899074986E0
2.276417095E0,1.555334777E-1,9.841679573E0,2.033899277E-1,9.845009647E0
2.278780532E0,3.349951655E-2,9.798608780E0,4.067798555E-1,9.807105898E0
2.281144022E0,-7.896314561E-2,9.753145218E0,6.077769399E-1,9.772383007E0
2.283507459E0,-2.081755698E-1,9.690931320E0,7.824530005E-1,9.724696377E0
2.285870949E0,-3.230310678E-1,9.616754532E0,9.379864931E-1,9.667788551E0
2.288234387E0,-4.115654826E-1,9.544969559E0,1.076770186E0,9.614325980E0
2.290597824E0,-4.809573591E-1,9.470791817E0,1.249053478E0,9.564902101E0
2.292961314E0,-5.216353536E-1,9.413364410E0,1.397408366E0,9.530807054E0
2.295324751E0,-5.886343718E-1,9.372686386E0,1.555334687E0,9.519075927E0
2.297688189E0,-6.317051649E-1,9.317651749E0,1.665404558E0,9.486372218E0
2.300051678E0,-6.628118753E-1,9.296115875E0,1.703689694E0,9.474156877E0
2.302415116E0,-6.699903607E-1,9.274580956E0,1.725225091E0,9.457438374E0
2.304778553E0,-6.699903607E-1,9.257830620E0,1.749153376E0,9.445414358E0
2.307142043E0,-6.819544435E-1,9.243474007E0,1.701296926E0,9.423443362E0
2.309505480E0,-6.628118753E-1,9.229117393E0,1.631905079E0,9.395692717E0
2.311868918E0,-6.317051649E-1,9.221938133E0,1.507478237E0,9.365665218E0
2.314232407E0,-5.982056856E-1,9.221938133E0,1.366301775E0,9.341775715E0
2.316595845E0,-5.335994363E-1,9.241081238E0,1.234696507E0,9.338457382E0
2.318959334E0,-5.048855543E-1,9.284152031E0,1.138983607E0,9.367372738E0
2.321322772E0,-4.570291340E-1,9.336793900E0,1.004985452E0,9.401839805E0
2.323686209E0,-4.187439680E-1,9.422935486E0,8.877372146E-1,9.473918780E0
2.326049699E0,-3.445664644E-1,9.525827408E0,7.992027402E-1,9.565502542E0
2.328413137E0,-2.512463629E-1,9.623932838E0,7.250252366E-1,9.654474072E0
2.330776574E0,-1.842473447E-1,9.734002113E0,6.149554253E-1,9.755148097E0
2.333140064E0,-1.148554832E-1,9.896714211E0,5.096712112E-1,9.910494876E0
2.335503501E0,-5.024927482E-2,1.002831936E1,4.139583111E-1,1.003698539E1
2.337866991E0,4.785645287E-3,1.020538902E1,3.230310678E-1,1.021050131E1
2.340230428E0,4.785645381E-2,1.039202881E1,2.823530734E-1,1.039597404E1
2.342593866E0,9.810572863E-2,1.056670475E1,2.201396823E-1,1.056945294E1
2.344957355E0,1.674975902E-1,1.074138069E1,1.627119333E-1,1.074391873E1
2.347320793E0,2.392822653E-1,1.091605663E1,1.076770201E-1,1.091920980E1
2.349684230E0,2.871387303E-1,1.107159042E1,5.982056633E-2,1.107547478E1
2.352047720E0,2.967100143E-1,1.123190975E1,-9.571290575E-3,1.123583220E1
2.354411157E0,3.158525825E-1,1.134676456E1,-5.742774159E-2,1.135130507E1
2.356774647E0,3.254238665E-1,1.145922756E1,-1.052841991E-1,1.146433085E1
2.359138084E0,3.373879790E-1,1.155015469E1,-1.459621787E-1,1.155600315E1
2.361501522E0,3.278166950E-1,1.161715412E1,-1.603191197E-1,1.162288415E1
2.363865012E0,3.302095234E-1,1.168175983E1,-1.459621787E-1,1.168733743E1
2.366228449E0,3.086741269E-1,1.169851017E1,-1.339980662E-1,1.170334890E1
2.368591887E0,2.536391914E-1,1.169372463E1,-1.339980662E-1,1.169724259E1
2.370955376E0,2.057827413E-1,1.170568848E1,-1.387837082E-1,1.170831970E1
2.373318814E0,1.603191197E-1,1.169611740E1,-1.172483116E-1,1.169780371E1
2.375682303E0,1.148554832E-1,1.166501045E1,-1.076770201E-1,1.166607282E1
2.378045741E0,6.460621208E-2,1.162193966E1,-1.148554832E-1,1.162268675E1
2.380409178E0,-2.153540403E-2,1.158126163E1,-1.363908947E-1,1.158208476E1
2.382772668E0,-1.411765367E-1,1.153579807E1,-1.579262912E-1,1.153774279E1
2.385136105E0,-2.632105052E-1,1.151665497E1,-2.009970993E-1,1.152141577E1
2.387499543E0,-3.852444589E-1,1.149512005E1,-2.033899277E-1,1.150337193E1
2.389863032E0,-5.216353536E-1,1.149272728E1,-2.105683982E-1,1.150648612E1
2.392226470E0,-6.221339107E-1,1.149990559E1,-2.153540403E-1,1.151873502E1
2.394589907E0,-7.274180651E-1,1.149751282E1,-2.249253243E-1,1.152269627E1
2.396953397E0,-8.303094506E-1,1.151186943E1,-2.440679073E-1,1.154435450E1
2.399316834E0,-8.949156404E-1,1.155733299E1,-2.584248483E-1,1.159480933E1
2.401680272E0,-9.906286001E-1,1.160040379E1,-2.727817893E-1,1.164581998E1
2.404043762E0,-1.076770186E0,1.166501045E1,-2.943171859E-1,1.171829875E1
2.406407199E0,-1.165304661E0,1.173679543E1,-2.943171859E-1,1.179817462E1
2.408770689E0,-1.229910851E0,1.181575775E1,-2.967100143E-1,1.188330126E1
2.411134126E0,-1.284945726E0,1.194497108E1,-2.703889608E-1,1.201692681E1
2.413497564E0,-1.292124271E0,1.204068375E1,-2.416750938E-1,1.211222758E1
2.415861053E0,-1.294517040E0,1.216271782E1,-2.081755698E-1,1.223318504E1
2.418224491E0,-1.316052437E0,1.227517986E1,-1.435693651E-1,1.234636168E1
2.420587928E0,-1.316052437E0,1.238285732E1,-8.853443712E-2,1.245291082E1
2.422951418E0,-1.275374413E0,1.244746304E1,-2.871387079E-2,1.251266320E1
2.425314855E0,-1.220339537E0,1.252403355E1,4.307080805E-2,1.258342163E1
2.427678345E0,-1.148554921E0,1.254317665E1,8.614161611E-2,1.259594694E1
2.430041782E0,-1.012163997E0,1.262213898E1,1.770688742E-1,1.266389441E1
2.432405220E0,-8.183453679E-1,1.268913841E1,3.134597540E-1,1.271936240E1
2.434768709E0,-6.484549642E-1,1.277288723E1,4.211367965E-1,1.279626892E1
2.437132147E0,-4.594219327E-1,1.284467220E1,5.048855543E-1,1.286279837E1
2.439495584E0,-2.536391914E-1,1.291645622E1,5.838487148E-1,1.293213260E1
2.441859074E0,-2.392822644E-3,1.296431351E1,6.604190469E-1,1.298112413E1
2.444222512E0,1.890329868E-1,1.300020504E1,6.963114142E-1,1.302021175E1
2.446586001E0,3.756731451E-1,1.304327583E1,7.274180651E-1,1.306894456E1
2.448949439E0,5.599204898E-1,1.308634663E1,7.561319470E-1,1.312012631E1
2.451312876E0,7.034898400E-1,1.314377499E1,7.728816867E-1,1.318525938E1
2.453676366E0,7.872386575E-1,1.320359516E1,8.087740541E-1,1.325174650E1
2.456039803E0,8.949156404E-1,1.328734398E1,9.044869542E-1,1.334812649E1
2.458403241E0,9.738788009E-1,1.337827110E1,1.033699393E0,1.345344239E1
2.460766730E0,1.036092162E0,1.347637749E1,1.160519004E0,1.356587784E1
2.463130168E0,1.086341500E0,1.353859043E1,1.268195987E0,1.364118359E1
2.465493605E0,1.129412293E0,1.358405399E1,1.332802176E0,1.369592847E1
2.467857095E0,1.143769264E0,1.362473202E1,1.406979680E0,1.374485804E1
2.470220532E0,1.138983607E0,1.364148235E1,1.507478237E0,1.377170342E1
2.472583970E0,1.119840980E0,1.363191032E1,1.639083505E0,1.377568937E1
2.474947459E0,1.057627559E0,1.362233925E1,1.763510346E0,1.377667127E1
2.477310897E0,1.004985452E0,1.353859043E1,1.928615093E0,1.371214727E1
2.479674387E0,9.738788009E-1,1.345244884E1,2.067398787E0,1.364518075E1
2.482037824E0,9.547362328E-1,1.330887985E1,2.210968018E0,1.352502066E1
2.484401262E0,9.164510965E-1,1.315813160E1,2.371287346E0,1.340146684E1
2.486764751E0,8.781659007E-1,1.300738430E1,2.536391973E0,1.328143463E1
2.489128189E0,8.422735929E-1,1.280160141E1,2.679961443E0,1.310620528E1
2.491491626E0,8.015955687E-1,1.256710434E1,2.811566591E0,1.290269637E1
2.493855116E0,8.422735929E-1,1.231346512E1,2.919243574E0,1.268277695E1
2.496218553E0,8.566305041E-1,1.202632618E1,3.050848961E0,1.243680090E1
2.498582043E0,8.662018180E-1,1.173679543E1,3.129812002E0,1.217778287E1
2.500945480E0,9.164510965E-1,1.141854954E1,3.194418192E0,1.189232794E1
2.503308918E0,9.260223508E-1,1.110987568E1,3.239881754E0,1.160963775E1
2.505672407E0,9.308080077E-1,1.078205872E1,3.249453068E0,1.129947516E1
2.508035845E0,9.284151793E-1,1.049252701E1,3.297309637E0,1.103754178E1
2.510399282E0,9.499505758E-1,1.021017456E1,3.306880951E0,1.077429962E1
2.512762772E0,1.033699393E0,9.954142570E0,3.268595695E0,1.052792508E1
2.515126209E0,1.110269666E0,9.793823242E0,3.230310678E0,1.037239507E1
2.517489699E0,1.249053478E0,9.643074989E0,3.182454109E0,1.023117999E1
2.519853137E0,1.395015597E0,9.549755096E0,3.117847919E0,1.014223183E1
2.522216574E0,1.579262972E0,9.454042435E0,3.000599623E0,1.004373377E1
2.524580064E0,1.775474429E0,9.401400566E0,2.861815929E0,9.986422406E0
2.526943501E0,1.923829436E0,9.377471924E0,2.699103832E0,9.946017338E0
2.529306939E0,2.117648125E0,9.384650230E0,2.481357098E0,9.935453013E0
2.531670428E0,2.411965132E0,9.396614075E0,2.249253273E0,9.958567776E0
2.534033866E0,2.746960402E0,9.477970123E0,2.009970903E0,1.007063514E1
2.536397303E0,3.129812002E0,9.559326172E0,1.744367719E0,1.020878341E1
2.538760793E0,3.558127165E0,9.652647018E0,1.466800332E0,1.039160077E1
2.541124230E0,4.000799656E0,9.734002113E0,1.124626637E0,1.058404366E1
2.543487720E0,4.398007870E0,9.810572624E0,7.298108935E-1,1.077601190E1
2.545851157E0,4.761716843E0,9.913464546E0,2.847459018E-1,1.100144567E1
2.548214595E0,5.060820103E0,1.001396275E1,-1.627119333E-1,1.122131120E1
2.550578084E0,5.283352375E0,1.013121128E1,-6.149554253E-1,1.144261441E1
2.552941522E0,5.460421085E0,1.022692394E1,-1.055234790E0,1.164129255E1
2.555304959E0,5.587240696E0,1.032263660E1,-1.488335729E0,1.183170437E1
2.557668449E0,5.699703693E0,1.043031406E1,-1.883151412E0,1.203429819E1
2.560031887E0,5.895915031E0,1.052602673E1,-2.203789711E0,1.226440956E1
2.562395376E0,6.075376511E0,1.066720295E1,-2.505285263E0,1.252900127E1
2.564758814E0,6.264409542E0,1.076530933E1,-2.773281336E0,1.276032136E1
2.567122251E0,6.467799664E0,1.086820030E1,-3.024527788E0,1.300376786E1
2.569485741E0,6.656832695E0,1.101416302E1,-3.227917671E0,1.326818228E1
2.571849178E0,6.862615108E0,1.118166065E1,-3.414557934E0,1.355670413E1
2.574212616E0,7.070790768E0,1.132762241E1,-3.558127165E0,1.381923951E1
2.576576105E0,7.219145775E0,1.145683479E1,-3.632304668E0,1.402029837E1
2.578939543E0,7.302894592E0,1.158604717E1,-3.668197155E0,1.417830839E1
2.581302980E0,7.355536938E0,1.171286678E1,-3.632304668E0,1.429995836E1
2.583666470E0,7.362715244E0,1.183729362E1,-3.495913982E0,1.437193483E1
2.586029907E0,7.343572617E0,1.193300629E1,-3.244667530E0,1.438236994E1
2.588393345E0,7.307680130E0,1.204068375E1,-2.962314367E0,1.439289965E1
2.590756834E0,7.197610378E0,1.212443256E1,-2.651247501E0,1.434700573E1
2.593120272E0,6.989434719E0,1.224646664E1,-2.282752752E0,1.428422567E1
2.595483762E0,6.716653347E0,1.234217930E1,-1.868794441E0,1.417516189E1
2.597847199E0,6.393621922E0,1.248096275E1,-1.392622828E0,1.409227557E1
2.600210637E0,5.989234924E0,1.264606762E1,-8.925228715E-1,1.402107550E1
2.602574126E0,5.548955917E0,1.280877972E1,-3.445664644E-1,1.396332610E1
2.604937564E0,5.072783947E0,1.298824120E1,2.225325108E-1,1.394550347E1
2.607301001E0,4.570291042E0,1.318206024E1,7.489534616E-1,1.397194345E1
2.609664491E0,4.043870449E0,1.332323647E1,1.263410330E0,1.398061958E1
2.612027928E0,3.476771355E0,1.346441269E1,1.794616938E0,1.402137647E1
2.614391418E0,2.962314367E0,1.360319710E1,2.275574446E0,1.410675430E1
2.616754855E0,2.483749866E0,1.372044468E1,2.672782898E0,1.419730200E1
2.619118293E0,2.029113531E0,1.378505135E1,3.017349243E0,1.425655424E1
2.621481782E0,1.612762451E0,1.381376553E1,3.275774240E0,1.428817055E1
2.623845220E0,1.270588875E0,1.378505135E1,3.481556892E0,1.427456742E1
2.626208657E0,9.690931439E-1,1.366062450E1,3.663411379E0,1.417647298E1
2.628572147E0,7.226324677E-1,1.349791241E1,3.850051641E0,1.405484737E1
2.630935584E0,5.000999570E-1,1.330887985E1,4.048655987E0,1.392005741E1
2.633299074E0,2.679961324E-1,1.310788250E1,4.232903481E0,1.377700539E1
2.635662512E0,4.785645381E-2,1.290209961E1,4.421936035E0,1.363891428E1
2.638025949E0,-1.507478207E-1,1.270349503E1,4.615755081E0,1.351690444E1
2.640389439E0,-3.230310678E-1,1.248814106E1,4.768895626E0,1.337162599E1
2.642752876E0,-4.498506486E-1,1.223689461E1,4.898108006E0,1.318845773E1
2.645116314E0,-5.575276613E-1,1.197846985E1,4.977071285E0,1.298328986E1
2.647479803E0,-7.010970116E-1,1.172243786E1,5.012963295E0,1.276858987E1
2.649843241E0,-8.518448472E-1,1.146162033E1,5.029713154E0,1.254561257E1
2.652206730E0,-1.007378340E0,1.121515942E1,5.053641319E0,1.234236211E1
2.654570168E0,-1.136590719E0,1.095673466E1,5.067998409E0,1.212544765E1
2.656933605E0,-1.208375454E0,1.072702408E1,5.060820103E0,1.192229495E1
2.659297095E0,-1.244267821E0,1.047577763E1,5.051248550E0,1.169637684E1
2.661660532E0,-1.227517962E0,1.021974564E1,5.003392220E0,1.144482131E1
2.664023970E0,-1.184447169E0,9.982855797E0,4.917250633E0,1.119105351E1
2.666387459E0,-1.129412293E0,9.724431038E0,4.778466702E0,1.089375395E1
2.668750897E0,-1.048056364E0,9.511469841E0,4.587040901E0,1.061166457E1
2.671114334E0,-9.260223508E-1,9.305686951E0,4.409972191E0,1.033930277E1
2.673477824E0,-7.920243144E-1,9.114261627E0,4.201796532E0,1.006738107E1
2.675841262E0,-5.694918036E-1,8.958727837E0,3.969692707E0,9.815374957E0
2.678204751E0,-2.775674164E-1,8.796015739E0,3.735196114E0,9.560262892E0
2.680568189E0,3.110669367E-2,8.645268440E0,3.517449379E0,9.333492603E0
2.682931626E0,3.278166950E-1,8.539983749E0,3.311666489E0,9.165474410E0
2.685295116E0,6.197410822E-1,8.472985268E0,3.113062143E0,9.048022671E0
2.687658553E0,9.068797827E-1,8.408378601E0,2.890529871E0,8.937473053E0
2.690021991E0,1.213161111E0,8.360522270E0,2.679961443E0,8.862972743E0
2.692385480E0,1.538584948E0,8.355736732E0,2.462214470E0,8.845794485E0
2.694748918E0,1.895115495E0,8.319844246E0,2.237289190E0,8.821379367E0
2.697112407E0,2.268395901E0,8.291130066E0,2.024327993E0,8.830988708E0
2.699475845E0,2.641676188E0,8.267202377E0,1.806581140E0,8.865033764E0
2.701839282E0,2.993421078E0,8.252845764E0,1.600798368E0,8.923709339E0
2.704202772E0,3.294916868E0,8.219346046E0,1.426122308E0,8.969278200E0
2.706566209E0,3.627519131E0,8.193024635E0,1.241874933E0,9.045816772E0
2.708929647E0,3.926621914E0,8.171489716E0,1.057627559E0,9.127441037E0
2.711293137E0,4.216153622E0,8.157132149E0,9.092726111E-1,9.227216966E0
2.713656574E0,4.455435753E0,8.114061356E0,7.513462901E-1,9.287271972E0
2.716020012E0,4.718646049E0,8.102097511E0,5.647061467E-1,9.393002590E0
2.718383501E0,4.934000492E0,8.075776100E0,4.019941986E-1,9.472281658E0
2.720746939E0,5.120640278E0,8.082955360E0,2.416750938E-1,9.571495759E0
2.723110428E0,5.252245903E0,8.073383331E0,7.178468257E-2,9.631757808E0
2.725473866E0,5.321637630E0,8.068597794E0,-6.460621208E-2,9.665726635E0
2.727837303E0,5.362315655E0,8.054241180E0,-1.986042857E-1,9.678051138E0
2.730200793E0,5.331208706E0,8.051848412E0,-3.421736360E-1,9.662873895E0
2.732564230E0,5.213960648E0,8.018348694E0,-4.785645306E-1,9.576446388E0
2.734927668E0,5.101497650E0,7.968099594E0,-6.101697683E-1,9.480938591E0
2.737291157E0,4.989035130E0,7.927421570E0,-7.417750359E-1,9.395994597E0
2.739654595E0,4.888536453E0,7.884350777E0,-8.638089895E-1,9.317024299E0
2.742018032E0,4.788038254E0,7.810173035E0,-9.882357717E-1,9.214158838E0
2.744381522E0,4.733003139E0,7.678567886E0,-1.095912814E0,9.086404591E0
2.746744959E0,4.668396950E0,7.616354465E0,-1.194018483E0,9.012683594E0
2.749108449E0,4.543970108E0,7.558926582E0,-1.311266780E0,8.916527126E0
2.751471887E0,4.433900356E0,7.484749317E0,-1.426122308E0,8.815598082E0
2.753835324E0,4.342973232E0,7.393822193E0,-1.529013634E0,8.710218471E0
2.756198814E0,4.268795490E0,7.331608772E0,-1.610369682E0,8.635299221E0
2.758562251E0,4.213760853E0,7.223931789E0,-1.696511269E0,8.533412067E0
2.760925741E0,4.199403763E0,7.135396957E0,-1.768295884E0,8.466153320E0
2.763289178E0,4.156332970E0,7.013363361E0,-1.844866276E0,8.358582474E0
2.765652616E0,4.132404804E0,6.879364967E0,-1.923829436E0,8.252487596E0
2.768016105E0,4.156332970E0,6.762116909E0,-1.988435626E0,8.182616029E0
2.770379543E0,4.197010994E0,6.654439926E0,-2.072184324E0,8.135749498E0
2.772742980E0,4.249652863E0,6.561119556E0,-2.163111687E0,8.110911876E0
2.775106470E0,4.252045631E0,6.477370739E0,-2.258824587E0,8.070843342E0
2.777469907E0,4.244867325E0,6.427121639E0,-2.309073925E0,8.041057988E0
2.779833345E0,4.235296249E0,6.393621922E0,-2.354537487E0,8.022467349E0
2.782196834E0,4.225724697E0,6.362515450E0,-2.392822742E0,8.003996048E0
2.784560272E0,4.213760853E0,6.331408501E0,-2.392822742E0,7.972961483E0
2.786923762E0,4.235296249E0,6.290730953E0,-2.400001049E0,7.954309227E0
2.789287199E0,4.283152580E0,6.242874146E0,-2.380858421E0,7.936457676E0
2.791650637E0,4.402793884E0,6.216553211E0,-2.349751949E0,7.971917087E0
2.794014126E0,4.510470867E0,6.211767673E0,-2.333002090E0,8.023297566E0
2.796377564E0,4.615755081E0,6.214160442E0,-2.309073925E0,8.077920980E0
2.798741001E0,4.709074974E0,6.209374905E0,-2.266003132E0,8.115817520E0
2.801104491E0,4.761716843E0,6.228517532E0,-2.225325108E0,8.149874218E0
2.803467928E0,4.835894585E0,6.238088608E0,-2.177468538E0,8.187856566E0
2.805831366E0,5.091926575E0,6.187839508E0,-2.108076811E0,8.286197069E0
2.808194855E0,5.302495003E0,6.128018856E0,-2.005185366E0,8.348043885E0
2.810558293E0,5.369493961E0,6.214160442E0,-1.926222205E0,8.435495681E0
2.812921782E0,5.395814896E0,6.290730953E0,-1.854437590E0,8.492764749E0
2.815285220E0,5.455635548E0,6.343372822E0,-1.763510346E0,8.550573474E0
2.817648657E0,5.587240696E0,6.338587284E0,-1.615155339E0,8.602538818E0
2.820012147E0,5.766702652E0,6.326622963E0,-1.493121386E0,8.689673703E0
2.822375584E0,5.907878876E0,6.309873104E0,-1.406979680E0,8.757689377E0
2.824739022E0,6.027520180E0,6.290730953E0,-1.325623751E0,8.812580426E0
2.827102512E0,6.161518097E0,6.273981094E0,-1.284945726E0,8.886969649E0
2.829465949E0,6.295516491E0,6.242874146E0,-1.306481123E0,8.961802185E0
2.831829439E0,6.362515450E0,6.209374905E0,-1.323230863E0,8.988263429E0
2.834192876E0,6.439085960E0,6.211767673E0,-1.366301775E0,9.050672139E0
2.836556314E0,6.460621357E0,6.221338749E0,-1.402194023E0,9.078041211E0
2.838919803E0,6.486942291E0,6.221338749E0,-1.497906923E0,9.112036066E0
2.841283241E0,6.458228111E0,6.250052929E0,-1.576870084E0,9.124603619E0
2.843646678E0,6.360122681E0,6.309873104E0,-1.672582984E0,9.113901082E0
2.846010168E0,6.204588890E0,6.350551128E0,-1.792224169E0,9.057510166E0
2.848373605E0,6.032305717E0,6.393621922E0,-1.942971945E0,9.002347112E0
2.850737095E0,5.857629776E0,6.443871498E0,-2.081755638E0,8.953715040E0
2.853100532E0,5.635097504E0,6.486942291E0,-2.232503414E0,8.877996151E0
2.855463970E0,5.453242779E0,6.520441532E0,-2.380858421E0,8.827372282E0
2.857827459E0,5.319244862E0,6.561119556E0,-2.538784742E0,8.819755308E0
2.860190897E0,5.166104317E0,6.582654953E0,-2.715853691E0,8.797490626E0
2.862554334E0,4.998606682E0,6.606583118E0,-2.866601467E0,8.766436747E0
2.864917824E0,4.804787636E0,6.616154671E0,-3.017349243E0,8.715726207E0
2.867281262E0,4.613361835E0,6.597012043E0,-3.151347399E0,8.644921385E0
2.869644699E0,4.484149456E0,6.611369133E0,-3.294916868E0,8.641427852E0
2.872008189E0,4.395615101E0,6.599404812E0,-3.440878868E0,8.643681124E0
2.874371626E0,4.285545349E0,6.525227547E0,-3.558127165E0,8.579321791E0
2.876735116E0,4.182653904E0,6.489335060E0,-3.620340586E0,8.527187647E0
2.879098553E0,4.108476639E0,6.453442574E0,-3.670589924E0,8.485265566E0
2.881461991E0,4.063013077E0,6.412764549E0,-3.723232031E0,8.455417268E0
2.883825480E0,4.000799656E0,6.340980053E0,-3.756731510E0,8.386146765E0
2.886188918E0,3.950550079E0,6.285944939E0,-3.751945972E0,8.318476320E0
2.888552355E0,3.828516245E0,6.240481377E0,-3.763910055E0,8.232142088E0
2.890915845E0,3.735196114E0,6.183053493E0,-3.747160196E0,8.137754607E0
2.893279282E0,3.716053486E0,6.125626087E0,-3.775874138E0,8.098739036E0
2.895642772E0,3.687339783E0,6.034698486E0,-3.790230989E0,8.023709332E0
2.898006209E0,3.601198196E0,5.958128452E0,-3.773481369E0,7.918780509E0
2.900369647E0,3.531806231E0,5.869594097E0,-3.672982693E0,7.772811073E0
2.902733137E0,3.529413462E0,5.821737289E0,-3.598805189E0,7.700700179E0
2.905096574E0,3.476771355E0,5.740381718E0,-3.570091486E0,7.601675772E0
2.907460012E0,3.393022537E0,5.670989513E0,-3.529413462E0,7.491961251E0
2.909823501E0,3.273381472E0,5.589633465E0,-3.495913982E0,7.360736587E0
2.912186939E0,3.208775282E0,5.517848969E0,-3.483949661E0,7.271918680E0
2.914550428E0,3.127419233E0,5.436492920E0,-3.510270834E0,7.187364444E0
2.916913866E0,3.055634499E0,5.383851051E0,-3.601198196E0,7.161800247E0
2.919277303E0,3.053241730E0,5.333601475E0,-3.704089403E0,7.175644087E0
2.921640793E0,3.084348440E0,5.283352375E0,-3.814159393E0,7.209357079E0
2.924004230E0,3.113062143E0,5.247459888E0,-3.969692707E0,7.279110617E0
2.926367668E0,3.165704250E0,5.213960648E0,-4.144368649E0,7.374473576E0
2.928731157E0,3.117847919E0,5.166104317E0,-4.273581028E0,7.394126335E0
2.931094595E0,3.024527788E0,5.101497650E0,-4.400400639E0,7.384888110E0
2.933458084E0,2.940778971E0,5.067998409E0,-4.510470867E0,7.394398980E0
2.935821522E0,2.909672260E0,5.046463013E0,-4.608576298E0,7.427782784E0
2.938184959E0,2.967100143E0,5.027320385E0,-4.701896667E0,7.495696484E0
2.940548449E0,3.053241730E0,5.022534847E0,-4.797609329E0,7.587173164E0
2.942911887E0,3.127419233E0,5.046463013E0,-4.898108006E0,7.696687731E0
2.945275324E0,3.213560820E0,5.077569485E0,-4.986642361E0,7.808667431E0
2.947638814E0,3.304488182E0,5.113461971E0,-5.082355499E0,7.930792703E0
2.950002251E0,3.347558975E0,5.185246468E0,-5.182853699E0,8.059460558E0
2.952365741E0,3.419343472E0,5.268995285E0,-5.268995285E0,8.198568924E0
2.954729178E0,3.486342669E0,5.383851051E0,-5.347958565E0,8.351113588E0
2.957092616E0,3.426522017E0,5.525027275E0,-5.429314613E0,8.470208775E0
2.959456053E0,3.354737282E0,5.668596745E0,-5.527420521E0,8.598815552E0
2.961819543E0,3.314059258E0,5.831308842E0,-5.632704735E0,8.758682218E0
2.964182980E0,3.261417150E0,5.979663849E0,-5.752345562E0,8.915307120E0
2.966546470E0,3.242274761E0,6.111268997E0,-5.869594097E0,9.072601019E0
2.968909907E0,3.323630571E0,6.254838467E0,-5.991627693E0,9.277344816E0
2.971273345E0,3.452843189E0,6.374479294E0,-6.120840549E0,9.487929247E0
2.973636834E0,3.651447296E0,6.486942291E0,-6.235695839E0,9.710684334E0
2.976000272E0,3.838087559E0,6.589833736E0,-6.355337143E0,9.927090963E0
2.978363709E0,3.991228104E0,6.711867332E0,-6.498906136E0,1.015947075E1
2.980727199E0,4.082155228E0,6.819544315E0,-6.668796539E0,1.037511558E1
2.983090637E0,4.153940201E0,6.886543751E0,-6.821937561E0,1.054601992E1
2.985454126E0,4.173082829E0,6.960721016E0,-6.989434719E0,1.071067015E1
2.987817564E0,4.158725739E0,7.020541668E0,-7.154539585E0,1.085220907E1
2.990181001E0,4.058227062E0,7.066005230E0,-7.334001541E0,1.096290178E1
2.992544491E0,3.974478483E0,7.144968510E0,-7.503891945E0,1.109754245E1
2.994907928E0,3.828516245E0,7.221538544E0,-7.707281590E0,1.123433777E1
2.997271418E0,3.637090445E0,7.298109055E0,-7.977670670E0,1.140763130E1
2.999634855E0,3.412165165E0,7.393822193E0,-8.271987915E0,1.160763808E1
3.001998293E0,3.177668571E0,7.511070251E0,-8.616554260E0,1.186417975E1
3.004361782E0,2.945564747E0,7.664210796E0,-9.001798630E0,1.218395902E1
3.006725220E0,2.773281336E0,7.829315662E0,-9.422935486E0,1.256109017E1
3.009088657E0,2.524427891E0,8.030312538E0,-9.923035622E0,1.301250520E1
3.011452147E0,2.177468538E0,8.255238533E0,-1.042313576E1,1.347338456E1
3.013815584E0,1.804188251E0,8.511270523E0,-1.096152020E1,1.399470422E1
3.016179074E0,1.459621787E0,8.779266357E0,-1.151426220E1,1.455280892E1
3.018542512E0,1.052842021E0,9.059226990E0,-1.204307652E1,1.510674558E1
3.020905949E0,6.699903607E-1,9.355937004E0,-1.245703506E1,1.559359378E1
3.023269439E0,2.656033039E-1,9.645467758E0,-1.279202938E1,1.602315852E1
3.025632876E0,-1.220339537E-1,9.961320877E0,-1.302413368E1,1.639728222E1
3.027996314E0,-4.402793646E-1,1.027956581E1,-1.308634663E1,1.664679510E1
3.030359803E0,-7.609176040E-1,1.058824062E1,-1.300977707E1,1.679119217E1
3.032723241E0,-1.153340459E0,1.094955635E1,-1.278963661E1,1.687595281E1
3.035086678E0,-1.452443361E0,1.133480072E1,-1.242114258E1,1.687815399E1
3.037450168E0,-1.744367719E0,1.170808125E1,-1.199282742E1,1.685081288E1
3.039813605E0,-2.074577332E0,1.208136177E1,-1.147597694E1,1.679170093E1
3.042177095E0,-2.392822742E0,1.247139168E1,-1.087298584E1,1.671774602E1
3.044540532E0,-2.754138947E0,1.286381435E1,-1.026760197E1,1.668791932E1
3.046903970E0,-3.026920557E0,1.324427319E1,-9.616754532E0,1.664496885E1
3.049267459E0,-3.297309637E0,1.353619766E1,-8.925228119E0,1.654571228E1
3.051630897E0,-3.495913982E0,1.378265858E1,-8.226524353E0,1.642737943E1
3.053994334E0,-3.759124279E0,1.393579865E1,-7.503891945E0,1.626794067E1
3.056357824E0,-4.043870449E0,1.400040531E1,-6.764509678E0,1.606620143E1
3.058721262E0,-4.409972191E0,1.398604870E1,-6.003592014E0,1.584615190E1
3.061084751E0,-4.728217602E0,1.393819237E1,-5.290530682E0,1.564029933E1
3.063448189E0,-5.046463013E0,1.379222965E1,-4.620540619E0,1.539616132E1
3.065811626E0,-5.273781300E0,1.364387512E1,-4.000799656E0,1.516491000E1
3.068175116E0,-5.429314613E0,1.347159195E1,-3.431307554E0,1.492431299E1
3.070538553E0,-5.541777134E0,1.325623703E1,-2.940778971E0,1.466585473E1
3.072902043E0,-5.505885124E0,1.302174091E1,-2.584248543E0,1.437215530E1
3.075265480E0,-5.309673309E0,1.276570892E1,-2.352144718E0,1.402456915E1
3.077628918E0,-4.984249592E0,1.248335552E1,-2.165504456E0,1.361492999E1
3.079992407E0,-4.500899315E0,1.226082325E1,-2.014756680E0,1.321533677E1
3.082355845E0,-3.847658873E0,1.209811115E1,-1.921436548E0,1.283980883E1
3.084719282E0,-3.206382275E0,1.202154064E1,-1.885544300E0,1.258386284E1
3.087082772E0,-2.615355253E0,1.207418346E1,-1.856830359E0,1.249295035E1
3.089446209E0,-2.057827473E0,1.226560879E1,-1.818545222E0,1.256928477E1
3.091809647E0,-1.488335729E0,1.247856998E1,-1.756331801E0,1.268915102E1
3.094173137E0,-9.571290612E-1,1.289731407E1,-1.572084427E0,1.302797973E1
3.096536574E0,-7.250252366E-1,1.363669586E1,-1.313659668E0,1.371899549E1
3.098900064E0,-5.551348329E-1,1.446461296E1,-9.690931439E-1,1.450766502E1
3.101263501E0,-3.613162339E-1,1.540259933E1,-4.570291340E-1,1.541361383E1
3.103626939E0,-4.307080805E-2,1.646979904E1,2.488535494E-1,1.647173530E1
3.105990428E0,5.359922647E-1,1.761356735E1,1.205982566E0,1.766293963E1
3.108353866E0,1.406979680E0,1.875255013E1,2.435893536E0,1.896236550E1
3.110717303E0,2.294716835E0,1.986282158E1,3.864408493E0,2.036494683E1
3.113080793E0,3.342773199E0,2.091326904E1,5.462814331E0,2.187192939E1
3.115444230E0,4.701896667E0,2.174836540E1,7.188039303E0,2.338305239E1
3.117807720E0,6.173482418E0,2.235853386E1,8.944371223E0,2.485996175E1
3.120171157E0,7.747959614E0,2.266242409E1,1.068873882E1,2.622718973E1
3.122534595E0,9.300901413E0,2.253081894E1,1.218664551E1,2.725176871E1
3.124898084E0,1.075573826E1,2.199721909E1,1.322752380E1,2.783039595E1
3.127261522E0,1.187557888E1,2.109751701E1,1.372762394E1,2.783131792E1
3.129625012E0,1.318684578E1,1.971685791E1,1.347159195E1,2.727876788E1
3.131988449E0,1.445264912E1,1.792702675E1,1.244267750E1,2.617398666E1
3.134351887E0,1.589312840E1,1.587877083E1,1.068156052E1,2.487614577E1
3.136715376E0,1.759681702E1,1.375872993E1,8.216953278E0,2.380060797E1
3.139078814E0,1.910668945E1,1.164347458E1,5.367101192E0,2.300960359E1
3.141442251E0,2.040359879E1,9.714859962E0,2.488535643E0,2.273495452E1
3.143805741E0,2.108555222E1,7.925028801E0,-2.727817893E-1,2.252733903E1
3.146169178E0,2.102573204E1,6.305087566E0,-2.780459881E0,2.212614956E1
3.148532616E0,2.022653008E1,4.874179840E0,-4.797609329E0,2.135151525E1
3.150896105E0,1.888415718E1,3.510270834E0,-6.185446739E0,2.017902736E1
3.153259543E0,1.747478294E1,2.206182480E0,-7.042077065E0,1.896908352E1
3.155623032E0,1.622573090E1,9.427721500E-1,-7.384250641E0,1.785189962E1
3.157986470E0,1.526381588E1,-2.560320199E-1,-7.580461979E0,1.704444283E1
3.160349907E0,1.456750393E1,-1.442872047E0,-7.532605648E0,1.646311630E1
3.162713397E0,1.409611797E1,-2.579462767E0,-7.331608772E0,1.609679028E1
3.165076834E0,1.379940796E1,-3.665804386E0,-7.082755089E0,1.593823081E1
3.167440272E0,1.363191032E1,-4.673182487E0,-6.776473522E0,1.592445312E1
3.169803762E0,1.349073410E1,-5.582455158E0,-6.479763508E0,1.597344820E1
3.172167199E0,1.342134190E1,-6.376872540E0,-6.195017815E0,1.609891821E1
3.174530689E0,1.341894913E1,-7.137789726E0,-5.991627693E0,1.633755919E1
3.176894126E0,1.337348557E1,-7.740781307E0,-5.821737289E0,1.651249335E1
3.179257564E0,1.320838070E1,-8.147561073E0,-5.855237007E0,1.658697901E1
3.181621053E0,1.281356525E1,-8.346165657E0,-6.053841114E0,1.644673001E1
3.183984491E0,1.231585789E1,-8.319844246E0,-6.331408501E0,1.615508890E1
3.186347928E0,1.162433243E1,-8.047062874E0,-6.690331936E0,1.564099954E1
3.188711418E0,1.044467068E1,-7.482356548E0,-7.135396957E0,1.469662188E1
3.191074855E0,8.506484032E0,-6.340980053E0,-7.613961697E0,1.305912368E1
3.193438345E0,6.326622963E0,-4.814359188E0,-8.073383331E0,1.133065448E1
3.195801782E0,4.347758770E0,-3.232703447E0,-8.456234932E0,1.004297203E1
3.198165220E0,2.574677229E0,-1.706082582E0,-8.683553696E0,9.216495288E0
3.200528709E0,1.043270707E0,-3.278166950E-1,-8.640482903E0,8.709409988E0
3.202892147E0,-1.842473447E-1,8.757730722E-1,-8.202595711E0,8.251272747E0
3.205255584E0,-1.100698471E0,1.921436548E0,-7.417750359E0,7.741219278E0
3.207619074E0,-1.751546144E0,2.878565550E0,-6.259624004E0,7.108934252E0
3.209982512E0,-2.098505497E0,3.663411379E0,-4.754538536E0,6.358454603E0
3.212346001E0,-2.136790514E0,4.376472473E0,-2.974278450E0,5.706638004E0
3.214709439E0,-1.928615093E0,5.010570526E0,-9.762716293E-1,5.456966141E0
3.217072876E0,-1.564906001E0,5.606383324E0,1.129412293E0,5.929252642E0
3.219436366E0,-1.143769264E0,6.262016773E0,3.218346357E0,7.132938768E0
3.221799803E0,-6.388836503E-1,6.994220734E0,5.319244862E0,8.810315652E0
3.224163293E0,-1.890329868E-1,7.819744587E0,7.314858913E0,1.070940240E1
3.226526730E0,8.614161611E-2,8.803194046E0,9.164510727E0,1.270794644E1
3.228890168E0,1.627119333E-1,9.903892517E0,1.088255692E1,1.471542073E1
3.231253657E0,4.785645287E-3,1.111705399E1,1.239242840E1,1.664815887E1
3.233617095E0,-3.852444589E-1,1.242353535E1,1.365344620E1,1.846372760E1
3.235980584E0,-8.709874153E-1,1.372762394E1,1.459621811E1,2.005631724E1
3.238344022E0,-1.442872047E0,1.501735497E1,1.513699627E1,2.137127712E1
3.240707459E0,-1.969292998E0,1.630708694E1,1.533081436E1,2.246849057E1
3.243070949E0,-2.536391973E0,1.752742577E1,1.512742519E1,2.329126298E1
3.245434387E0,-3.175275564E0,1.859223175E1,1.473021603E1,2.393183488E1
3.247797824E0,-3.859622955E0,1.952782631E1,1.399561977E1,2.433331179E1
3.250161314E0,-4.529613495E0,2.027917099E1,1.316052437E1,2.459596666E1
3.252524751E0,-5.077569485E0,2.084866333E1,1.217228889E1,2.467008495E1
3.254888241E0,-5.551348686E0,2.121955109E1,1.113380337E1,2.459773156E1
3.257251678E0,-5.919843197E0,2.132962036E1,1.000917721E1,2.429363860E1
3.259615116E0,-6.123233318E0,2.116451645E1,8.934800148E0,2.377522653E1
3.261978605E0,-6.084948063E0,2.074577141E1,7.915457249E0,2.302320759E1
3.264342043E0,-5.903093338E0,2.004946136E1,6.972685337E0,2.203283352E1
3.266705480E0,-5.560919762E0,1.913779640E1,6.070590973E0,2.083341437E1
3.269068970E0,-5.192425251E0,1.811127472E1,5.242674351E0,1.955671717E1
3.271432407E0,-4.764110088E0,1.700818253E1,4.469792843E0,1.821960663E1
3.273795897E0,-4.405186653E0,1.591466331E1,3.689732552E0,1.692029267E1
3.276159334E0,-4.060619831E0,1.481396484E1,2.892922640E0,1.563045710E1
3.278522772E0,-3.713660717E0,1.375394440E1,2.031506538E0,1.439059697E1
3.280886262E0,-3.359523058E0,1.271545982E1,1.160519004E0,1.320288295E1
3.283249699E0,-3.043670416E0,1.178943729E1,2.751746178E-1,1.217910023E1
3.285613137E0,-2.713460922E0,1.094716358E1,-5.694918036E-1,1.129281106E1
3.287976626E0,-2.400001049E0,1.018146038E1,-1.328016520E0,1.054446625E1
3.290340064E0,-2.062613010E0,9.475577354E0,-2.007578135E0,9.903095910E0
3.292703501E0,-1.751546144E0,8.836693764E0,-2.596212626E0,9.375254160E0
3.295066991E0,-1.416550994E0,8.245666504E0,-3.086741209E0,8.917712941E0
3.297430428E0,-1.074377418E0,7.731209755E0,-3.440878868E0,8.530271889E0
3.299793918E0,-7.369893789E-1,7.271788120E0,-3.723232031E0,8.202713732E0
3.302157355E0,-4.474578202E-1,6.829115868E0,-3.830909014E0,7.843016378E0
3.304520793E0,-1.651047617E-1,6.398407936E0,-3.835694790E0,7.461865599E0
3.306884282E0,5.982056633E-2,6.001199245E0,-3.711267948E0,7.056307864E0
3.309247720E0,3.158525825E-1,5.661418438E0,-3.440878868E0,6.632576345E0
3.311611157E0,5.599204898E-1,5.343173027E0,-3.022135019E0,6.164114618E0
3.313974647E0,7.585247755E-1,5.046463013E0,-2.536391973E0,5.698722051E0
3.316338084E0,9.164510965E-1,4.802394867E0,-2.007578135E0,5.285191485E0
3.318701574E0,9.930213690E-1,4.601397991E0,-1.473978758E0,4.932703953E0
3.321065012E0,9.930213690E-1,4.443471432E0,-9.523434043E-1,4.651611308E0
3.323428449E0,1.050449133E0,4.314259052E0,-3.828516304E-1,4.456775732E0
3.325791939E0,1.160519004E0,4.199403763E0,2.249253243E-1,4.362612488E0
3.328155376E0,1.318445325E0,4.120440483E0,8.015955687E-1,4.399873101E0
3.330518814E0,1.423729420E0,4.096512318E0,1.342373490E0,4.539866211E0
3.332882303E0,1.385444283E0,4.168296814E0,1.787438512E0,4.742266402E0
3.335245741E0,1.289731383E0,4.409972191E0,2.009970903E0,5.015101674E0
3.337609230E0,1.395015597E0,4.371686935E0,2.153540373E0,5.069068091E0
3.339972668E0,1.483550072E0,4.405186653E0,2.569891453E0,5.311396459E0
3.342336105E0,1.416550994E0,4.553541660E0,2.945564747E0,5.605150315E0
3.344699595E0,1.301695466E0,4.771288395E0,3.208775282E0,5.895408624E0
3.347063032E0,1.189232826E0,5.015356064E0,3.412165165E0,6.181500002E0
3.349426522E0,1.172483087E0,5.254638672E0,3.510270834E0,6.427125756E0
3.351789959E0,1.205982566E0,5.503491879E0,3.460021496E0,6.611699143E0
3.354153397E0,1.272981644E0,5.740381718E0,3.381058455E0,6.782626394E0
3.356516887E0,1.397408366E0,6.017949104E0,3.254238844E0,6.982730986E0
3.358880324E0,1.555334687E0,6.283552170E0,3.062813044E0,7.161209227E0
3.361243762E0,1.713261008E0,6.568298340E0,2.763710260E0,7.329113232E0
3.363607251E0,1.871187329E0,6.888936520E0,2.395215511E0,7.529664384E0
3.365970689E0,2.033899307E0,7.247859955E0,2.038684845E0,7.799003540E0
3.368334178E0,2.352144718E0,7.601997375E0,1.718046665E0,8.140923364E0
3.370697616E0,2.778067112E0,7.992027760E0,1.234696507E0,8.550709915E0
3.373061053E0,3.199203968E0,8.303094864E0,7.800601721E-1,8.932232880E0
3.375424543E0,3.555734396E0,8.623732567E0,3.637090325E-1,9.335110858E0
3.377787980E0,3.687339783E0,8.939585686E0,-1.196411345E-2,9.670202172E0
3.380151418E0,3.656233072E0,9.279366493E0,-2.727817893E-1,9.977429163E0
3.382514907E0,3.692125320E0,9.568898201E0,-5.335994363E-1,1.027036175E1
3.384878345E0,3.821337700E0,9.848857880E0,-9.116654396E-1,1.060347854E1
3.387241834E0,3.991228104E0,1.010249710E1,-1.325623751E0,1.094292592E1
3.389605272E0,4.130012035E0,1.026999474E1,-1.708475351E0,1.120038746E1
3.391968709E0,4.249652863E0,1.041595650E1,-2.007578135E0,1.142725116E1
3.394332199E0,4.261617184E0,1.056670475E1,-2.304288149E0,1.162438704E1
3.396695637E0,4.242474556E0,1.071027374E1,-2.553141832E0,1.179945284E1
3.399059126E0,4.194618225E0,1.078923702E1,-2.742174864E0,1.189630113E1
3.401422564E0,4.115654945E0,1.083709335E1,-2.854637384E0,1.193859969E1
3.403786001E0,4.053441525E0,1.083948612E1,-2.907279491E0,1.193218847E1
3.406149491E0,3.984049797E0,1.078684425E1,-2.933600664E0,1.186737859E1
3.408512928E0,3.811766386E0,1.068395329E1,-2.892922640E0,1.170664009E1
3.410876366E0,3.687339783E0,1.053081226E1,-2.775674343E0,1.149777586E1
3.413239855E0,3.651447296E0,1.040159988E1,-2.555534601E0,1.131623191E1
3.415603293E0,3.622733593E0,1.022931671E1,-2.354537487E0,1.110436697E1
3.417966730E0,3.625126362E0,1.005942631E1,-2.141576290E0,1.090504231E1
3.420330220E0,3.658625841E0,9.891928673E0,-1.866401672E0,1.071070731E1
3.422693657E0,3.651447296E0,9.707681656E0,-1.646261930E0,1.050153936E1
3.425057147E0,3.586841106E0,9.468399048E0,-1.430907965E0,1.022562992E1
3.427420584E0,3.433700562E0,9.248259544E0,-1.165304661E0,9.933707218E0
3.429784022E0,3.227917671E0,9.025727272E0,-8.805587292E-1,9.625933147E0
3.432147512E0,2.955136061E0,8.812766075E0,-5.766702294E-1,9.312906291E0
3.434510949E0,2.641676188E0,8.599804878E0,-2.919243574E-1,9.001128643E0
3.436874439E0,2.313859463E0,8.417949677E0,5.024927482E-2,8.730311985E0
3.439237876E0,1.998006940E0,8.240880966E0,3.804588020E-1,8.488162329E0
3.441601314E0,1.756331801E0,8.099704742E0,7.082754970E-1,8.318147179E0
3.443964803E0,1.502692580E0,8.001599312E0,1.002592683E0,8.202979253E0
3.446328241E0,1.083948612E0,7.951349735E0,1.280160069E0,8.126359395E0
3.448691730E0,6.556333899E-1,7.936992645E0,1.519442320E0,8.107676138E0
3.451055168E0,3.421736360E-1,7.982456207E0,1.777867198E0,8.185200161E0
3.453418605E0,2.153540403E-1,8.047062874E0,2.098505497E0,8.318973709E0
3.455782095E0,2.416750938E-1,8.030312538E0,2.364108801E0,8.374564868E0
3.458145532E0,3.038884699E-1,8.032705307E0,2.514856577E0,8.422660290E0
3.460508970E0,3.445664644E-1,8.018348694E0,2.593819857E0,8.434485359E0
3.462872459E0,3.924229145E-1,8.018348694E0,2.627319336E0,8.446935445E0
3.465235897E0,4.402793646E-1,8.059026718E0,2.641676188E0,8.492361900E0
3.467599387E0,5.288137794E-1,8.135597229E0,2.617748022E0,8.562721004E0
3.469962824E0,6.317051649E-1,8.231309891E0,2.560320139E0,8.643422537E0
3.472326262E0,7.513462901E-1,8.312665939E0,2.428714991E0,8.692732181E0
3.474689751E0,8.518448472E-1,8.439485550E0,2.239681959E0,8.773068521E0
3.477053189E0,9.068797827E-1,8.599804878E0,2.060220242E0,8.889520928E0
3.479416678E0,9.738788009E-1,8.762516975E0,1.875972986E0,9.013845922E0
3.481780116E0,1.026520967E0,8.925228119E0,1.634297848E0,9.131504352E0
3.484143553E0,1.081555843E0,9.107083321E0,1.361516118E0,9.271594026E0
3.486507043E0,1.110269666E0,9.231510162E0,1.016949654E0,9.353484121E0
3.488870480E0,1.098305583E0,9.415757179E0,7.034898400E-1,9.505664436E0
3.491233918E0,1.083948612E0,9.611968994E0,4.594219327E-1,9.683798896E0
3.493597407E0,1.064806104E0,9.781859398E0,1.938186288E-1,9.841552265E0
3.495960845E0,1.043270707E0,9.934999466E0,-1.076770201E-1,9.990206329E0
3.498324334E0,1.033699393E0,1.004506969E1,-3.804588020E-1,1.010528122E1
3.500687772E0,1.009771109E0,1.011685371E1,-6.556333899E-1,1.018823939E1
3.503051209E0,1.014556766E0,1.016231823E1,-9.212366939E-1,1.025430223E1
3.505414699E0,1.026520967E0,1.018146038E1,-1.138983607E0,1.029626944E1
3.507778137E0,1.007378340E0,1.017906761E1,-1.287338614E0,1.030948443E1
3.510141626E0,1.004985452E0,1.015753174E1,-1.409372568E0,1.030396903E1
3.512505064E0,1.052842021E0,1.005464077E1,-1.581655741E0,1.023259069E1
3.514868501E0,9.571290612E-1,1.005942631E1,-1.564906001E0,1.022531586E1
3.517231991E0,8.877372146E-1,1.007378292E1,-1.402194023E0,1.020957040E1
3.519595428E0,8.853443861E-1,1.004506969E1,-1.246660590E0,1.016077864E1
3.521958866E0,9.212366939E-1,9.963713646E0,-1.143769264E0,1.007136906E1
3.524322355E0,8.542376757E-1,9.925428391E0,-9.978070259E-1,1.001196632E1
3.526685793E0,7.848458290E-1,9.932606697E0,-8.135597110E-1,9.996726373E0
3.529049230E0,7.657032609E-1,9.939785004E0,-6.197410822E-1,9.988478684E0
3.531412720E0,7.250252366E-1,9.999606133E0,-4.067798555E-1,1.003410456E1
3.533776157E0,6.963114142E-1,1.008574772E1,-1.674975902E-1,1.011114297E1
3.536139647E0,6.604190469E-1,1.018624592E1,9.092725813E-2,1.020803737E1
3.538503084E0,6.460621357E-1,1.031067276E1,3.086741269E-1,1.033550428E1
3.540866522E0,6.221339107E-1,1.041356373E1,3.924229145E-1,1.043950937E1
3.543230012E0,6.580262184E-1,1.057149029E1,5.814558864E-1,1.060789783E1
3.545593449E0,6.987041831E-1,1.073659515E1,6.532405615E-1,1.077911807E1
3.547956939E0,7.800601721E-1,1.094955635E1,8.542376757E-1,1.101049500E1
3.550320376E0,9.020941257E-1,1.115533924E1,1.014556766E0,1.123764623E1
3.552683814E0,1.081555843E0,1.133001518E1,1.112662554E0,1.143577829E1
3.555047303E0,1.215553880E0,1.154297638E1,1.189232826E0,1.166756828E1
3.557410741E0,1.356730461E0,1.171286678E1,1.222732425E0,1.185441017E1
3.559774230E0,1.524227977E0,1.183011532E1,1.198804140E0,1.198799528E1
3.562137668E0,1.691725612E0,1.195932770E1,1.129412293E0,1.213107690E1
3.564501105E0,1.854437590E0,1.203829098E1,9.762716293E-1,1.221934919E1
3.566864595E0,2.021935225E0,1.210528946E1,7.537391186E-1,1.229611230E1
3.569228032E0,2.189432621E0,1.215314579E1,5.599204898E-1,1.236147559E1
3.571591470E0,2.304288149E0,1.219143105E1,3.828516304E-1,1.241319098E1
3.573954959E0,2.407179594E0,1.220100307E1,2.033899277E-1,1.243785983E1
3.576318397E0,2.462214470E0,1.219382381E1,1.914258115E-2,1.243994396E1
3.578681887E0,2.428714991E0,1.219621658E1,-1.411765367E-1,1.243649011E1
3.581045324E0,2.347358942E0,1.216750336E1,-2.871387303E-1,1.239518780E1
3.583408762E0,2.263610125E0,1.211486149E1,-4.522434771E-1,1.233281492E1
3.585772251E0,2.218146563E0,1.196172047E1,-7.489534616E-1,1.218867761E1
3.588135689E0,2.105684042E0,1.193779182E1,-8.422735929E-1,1.215130461E1
3.590499178E0,1.976471543E0,1.194975662E1,-8.446664214E-1,1.214152315E1
3.592862616E0,1.792224169E0,1.199761295E1,-7.704889178E-1,1.215518150E1
3.595226053E0,1.639083505E0,1.206221867E1,-6.699903607E-1,1.219149708E1
3.597589543E0,1.485942841E0,1.211725426E1,-5.431707501E-1,1.222010275E1
3.599952980E0,1.397408366E0,1.213878918E1,-4.737788737E-1,1.222814047E1
3.602316470E0,1.299302697E0,1.216511059E1,-3.828516304E-1,1.224028915E1
3.604679907E0,1.253839016E0,1.218903828E1,-3.086741269E-1,1.225724464E1
3.607043345E0,1.208375454E0,1.220578861E1,-2.632105052E-1,1.226828132E1
3.609406834E0,1.141376376E0,1.226800156E1,-1.938186288E-1,1.232250656E1
3.611770272E0,1.040877819E0,1.232542896E1,-1.651047617E-1,1.237040360E1
3.614133709E0,9.762716293E-1,1.243789196E1,-1.100698411E-1,1.247663328E1
3.616497199E0,8.973084688E-1,1.256949711E1,-6.699903309E-2,1.260166294E1
3.618860637E0,8.039883971E-1,1.269631672E1,-5.742774159E-2,1.272187697E1
3.621224126E0,7.106683254E-1,1.284227943E1,-4.785645381E-2,1.286201698E1
3.623587564E0,6.340979934E-1,1.302652645E1,-7.657032460E-2,1.304217523E1
3.625951001E0,5.527420044E-1,1.320120239E1,-1.028913707E-1,1.321316975E1
3.628314491E0,4.833501875E-1,1.338066387E1,-1.172483116E-1,1.338990441E1
3.630677928E0,4.211367965E-1,1.356969738E1,-8.135596663E-2,1.357647458E1
3.633041366E0,3.637090325E-1,1.376112270E1,-8.135596663E-2,1.376616872E1
3.635404855E0,3.206382394E-1,1.396929836E1,-8.374879509E-2,1.397322867E1
3.637768293E0,3.014956415E-1,1.418465233E1,-5.982056633E-2,1.418798223E1
3.640131782E0,3.373879790E-1,1.443589878E1,-2.392822690E-2,1.443986069E1
3.642495220E0,4.187439680E-1,1.467039585E1,2.871387079E-2,1.467639893E1
3.644858657E0,4.163511395E-1,1.486421394E1,-1.674975827E-2,1.487005329E1
3.647222147E0,4.450650215E-1,1.512263870E1,4.785645381E-2,1.512926219E1
3.649585584E0,5.024927258E-1,1.535713577E1,7.657032460E-2,1.536554526E1
3.651949022E0,5.958128572E-1,1.557248974E1,9.092725813E-2,1.558414891E1
3.654312512E0,7.489534616E-1,1.573759460E1,1.004985496E-1,1.575572643E1
3.656675949E0,9.619147182E-1,1.587159252E1,1.124626622E-1,1.590111244E1
3.659039439E0,1.136590719E0,1.590030670E1,1.028913707E-1,1.594121006E1
3.661402876E0,1.306481123E0,1.584287834E1,7.178468257E-2,1.589681855E1
3.663766314E0,1.529013634E0,1.571127319E1,1.651047617E-1,1.578636271E1
3.666129803E0,1.785045743E0,1.552463341E1,3.493520916E-1,1.563082460E1
3.668493241E0,1.964507341E0,1.525185108E1,6.005984545E-1,1.538957339E1
3.670856678E0,2.067398787E0,1.488335705E1,9.284151793E-1,1.505491314E1
3.673220168E0,2.081755638E0,1.447896957E1,1.270588875E0,1.468293780E1
3.675583605E0,2.053041935E0,1.407219028E1,1.672582984E0,1.431918484E1
3.677947095E0,1.966900229E0,1.363669586E1,2.076970100E0,1.393348396E1
3.680310532E0,1.940579176E0,1.328255844E1,2.591426849E0,1.367141907E1
3.682673970E0,1.907079697E0,1.292842102E1,3.139383316E0,1.344011721E1
3.685037459E0,1.899901152E0,1.259821129E1,3.634697676E0,1.324898408E1
3.687400897E0,1.990828395E0,1.227757263E1,4.072584152E0,1.308770909E1
3.689764387E0,2.079362869E0,1.194257736E1,4.390829563E0,1.289295498E1
3.692127824E0,2.141576290E0,1.160279655E1,4.589433670E0,1.265994227E1
3.694491262E0,2.266003132E0,1.132044411E1,4.733003139E0,1.247752154E1
3.696854751E0,2.431107759E0,1.102851963E1,4.850251675E0,1.229078807E1
3.699218189E0,2.533999205E0,1.074138069E1,4.905286312E0,1.207726148E1
3.701581678E0,2.691925526E0,1.051406288E1,5.034498692E0,1.196403604E1
3.703945116E0,2.938386202E0,1.030110168E1,5.084748268E0,1.185754926E1
3.706308553E0,3.043670416E0,1.012403297E1,5.096712112E0,1.173611723E1
3.708672043E0,3.081955671E0,9.906285286E0,5.046463013E0,1.153688554E1
3.711035480E0,3.175275564E0,9.702896118E0,4.938786030E0,1.134108352E1
3.713398918E0,3.285345554E0,9.535398483E0,4.811966419E0,1.117462932E1
3.715762407E0,3.373879910E0,9.355937004E0,4.663611412E0,1.098480288E1
3.718125845E0,3.493520975E0,9.245866776E0,4.503292084E0,1.086141707E1
3.720489334E0,3.661018610E0,9.188439369E0,4.340580463E0,1.080144037E1
3.722852772E0,3.775874138E0,9.198010445E0,4.189832687E0,1.078959312E1
3.725216209E0,3.938585997E0,9.291330338E0,4.012763500E0,1.086018186E1
3.727579699E0,4.137190342E0,9.442078590E0,3.823730469E0,1.099500372E1
3.729943137E0,4.259224415E0,9.645467758E0,3.641875982E0,1.115523651E1
3.732306574E0,4.302295208E0,9.896714211E0,3.357130051E0,1.130154938E1
3.734670064E0,4.309473515E0,1.018863869E1,3.060420275E0,1.147807007E1
3.737033501E0,4.292723656E0,1.051645565E1,2.689532757E0,1.167291319E1
3.739396991E0,4.383651257E0,1.090409279E1,2.273181438E0,1.197008737E1
3.741760428E0,4.541577339E0,1.132283688E1,1.808973908E0,1.233308340E1
3.744123866E0,4.723432064E0,1.176072311E1,1.275374413E0,1.273781765E1
3.746487355E0,4.890929699E0,1.217946720E1,7.058826685E-1,1.314377742E1
3.748850793E0,5.067998409E0,1.261735344E1,5.264209956E-2,1.359724189E1
3.751214230E0,5.273781300E0,1.305763340E1,-6.795616150E-1,1.409880715E1
3.753577720E0,5.486742496E0,1.347637749E1,-1.459621787E0,1.462352862E1
3.755941157E0,5.723631859E0,1.382333660E1,-2.258824587E0,1.513099088E1
3.758304647E0,5.943771362E0,1.419422436E1,-3.007778168E0,1.567964134E1
3.760668084E0,6.149554253E0,1.454596901E1,-3.680161238E0,1.621560417E1
3.763031522E0,6.271588326E0,1.485225010E1,-4.256831646E0,1.667461450E1
3.765395012E0,6.364908218E0,1.511067486E1,-4.756931305E0,1.707257880E1
3.767758449E0,6.460621357E0,1.528774357E1,-5.209175110E0,1.739512107E1
3.770121939E0,6.407979012E0,1.536192131E1,-5.560919762E0,1.754920653E1
3.772485376E0,6.029912949E0,1.541695595E1,-5.749952793E0,1.752439266E1
3.774848814E0,5.515456200E0,1.535474300E1,-5.972485542E0,1.737408914E1
3.777212303E0,5.079962254E0,1.521835232E1,-6.116054535E0,1.717004330E1
3.779575741E0,4.761716843E0,1.513221073E1,-6.139982700E0,1.701050077E1
3.781939178E0,4.567898273E0,1.508913994E1,-6.092126369E0,1.690153373E1
3.784302668E0,4.469792843E0,1.500778389E1,-5.855237007E0,1.671814660E1
3.786666105E0,4.414757729E0,1.508196068E1,-5.544169903E0,1.666413645E1
3.789029543E0,4.462614059E0,1.514417458E1,-5.199603558E0,1.662217871E1
3.791393032E0,4.532006264E0,1.515853119E1,-4.826323509E0,1.654126800E1
3.793756470E0,4.651647091E0,1.517288876E1,-4.383651257E0,1.646422705E1
3.796119959E0,4.814359188E0,1.520160198E1,-3.883551121E0,1.641184714E1
3.798483397E0,4.998606682E0,1.519681644E1,-3.354737282E0,1.634575055E1
3.800846887E0,5.175675392E0,1.516810226E1,-2.821137905E0,1.627322221E1
3.803210324E0,5.338387489E0,1.509631824E1,-2.237289190E0,1.616795189E1
3.805573762E0,5.472385406E0,1.497667694E1,-1.713261008E0,1.603692980E1
3.807937251E0,5.565705299E0,1.482832146E1,-1.232303619E0,1.588630747E1
3.810300689E0,5.599205017E0,1.463689613E1,-7.872386575E-1,1.569106657E1
3.812664126E0,5.570491314E0,1.440000629E1,-3.302095234E-1,1.544343204E1
3.815027616E0,5.429314613E0,1.423011589E1,1.794617027E-1,1.523173864E1
3.817391053E0,5.292923450E0,1.406740475E1,6.987041831E-1,1.504643155E1
3.819754543E0,5.149354458E0,1.388794231E1,1.335195065E0,1.487190435E1
3.822117980E0,4.960321426E0,1.363430309E1,2.163111687E0,1.466894889E1
3.824481418E0,4.699503899E0,1.337587833E1,3.019742250E0,1.449545796E1
3.826844907E0,4.266402721E0,1.317727470E1,3.658625841E0,1.432579156E1
3.829208345E0,3.687339783E0,1.296191978E1,4.122833252E0,1.409274967E1
3.831571782E0,3.072384357E0,1.269153118E1,4.632504463E0,1.385549014E1
3.833935272E0,2.522035122E0,1.239721394E1,5.201996326E0,1.367890128E1
3.836298709E0,2.048256159E0,1.208375454E1,5.733202934E0,1.353078316E1
3.838662199E0,1.584048629E0,1.176790142E1,6.022734642E0,1.331412958E1
3.841025637E0,1.165304661E0,1.143051338E1,6.211767673E0,1.306141756E1
3.843389074E0,8.087740541E-1,1.110269737E1,6.396014690E0,1.283873079E1
3.845752564E0,4.977070987E-1,1.074138069E1,6.527620316E0,1.257914141E1
3.848116001E0,2.225325108E-1,1.037527943E1,6.625725746E0,1.231244028E1
3.850479491E0,0.000000000E0,1.000439167E1,6.683153629E0,1.203130895E1
3.852842928E0,-1.866401732E-1,9.650253296E0,6.699903488E0,1.174950765E1
3.855206366E0,-3.397808075E-1,9.265008926E0,6.707081795E0,1.144293614E1
3.857569855E0,-4.785645306E-1,8.863015175E0,6.673582554E0,1.110489829E1
3.859933293E0,-5.838487148E-1,8.465806961E0,6.592226505E0,1.074561385E1
3.862296782E0,-6.053841114E-1,8.023134232E0,6.427121639E0,1.029781848E1
3.864660220E0,-5.910272002E-1,7.625925541E0,6.190232277E0,9.839869366E0
3.867023657E0,-5.168496966E-1,7.235895634E0,5.900700569E0,9.351127549E0
3.869387147E0,-4.187439680E-1,6.865008354E0,5.551348686E0,8.838617451E0
3.871750584E0,-3.014956415E-1,6.551548481E0,5.146961689E0,8.336959982E0
3.874114022E0,-1.292124242E-1,6.264409542E0,4.725824833E0,7.848117170E0
3.876477512E0,4.785645287E-3,6.017949104E0,4.309473515E0,7.401844115E0
3.878840949E0,1.651047617E-1,5.747560024E0,3.885943890E0,6.939903870E0
3.881204439E0,3.948157430E-1,5.508277893E0,3.450450182E0,6.511728747E0
3.883567876E0,6.125625968E-1,5.252245903E0,2.969492912E0,6.064586393E0
3.885931314E0,8.781659007E-1,5.010570526E0,2.488535643E0,5.663020571E0
3.888294803E0,1.117448211E0,4.821537495E0,2.007578135E0,5.341000307E0
3.890658241E0,1.318445325E0,4.663611412E0,1.574477315E0,5.095738248E0
3.893021678E0,1.550549030E0,4.515256405E0,1.112662554E0,4.902015979E0
3.895385168E0,1.830509305E0,4.393222332E0,6.293123364E-1,4.800750024E0
3.897748605E0,2.076970100E0,4.280759811E0,8.614161611E-2,4.758794988E0
3.900112095E0,2.309073925E0,4.180261135E0,-4.689932466E-1,4.798578979E0
3.902475532E0,2.486142635E0,4.101297855E0,-1.009771109E0,4.901141397E0
3.904838970E0,2.612962246E0,4.043870449E0,-1.490728498E0,5.040112237E0
3.907202459E0,2.749353170E0,3.988835335E0,-1.940579176E0,5.218773584E0
3.909565897E0,2.897708178E0,3.957728624E0,-2.352144718E0,5.439936886E0
3.911929334E0,2.967100143E0,3.929014683E0,-2.730210543E0,5.629821422E0
3.914292824E0,3.017349243E0,3.905086517E0,-3.091526747E0,5.823369711E0
3.916656262E0,3.036491871E0,3.885943890E0,-3.383451223E0,5.980684323E0
3.919019751E0,3.031706333E0,3.881158352E0,-3.653840065E0,6.132306309E0
3.921383189E0,2.957528830E0,3.869194269E0,-3.864408493E0,6.217016493E0
3.923746626E0,2.892922640E0,3.864408493E0,-4.034298897E0,6.291122475E0
3.926110116E0,2.811566591E0,3.833301783E0,-4.185046673E0,6.333539682E0
3.928473553E0,2.725425005E0,3.795016766E0,-4.307080746E0,6.354607640E0
3.930837043E0,2.612962246E0,3.720839262E0,-4.390829563E0,6.320727867E0
3.933200480E0,2.478964329E0,3.675375462E0,-4.407579422E0,6.251432259E0
3.935563918E0,2.361716032E0,3.574877024E0,-4.386044025E0,6.131462350E0
3.937927407E0,2.263610125E0,3.469592810E0,-4.354937077E0,6.010614112E0
3.940290845E0,2.189432621E0,3.385843992E0,-4.237689018E0,5.849407060E0
3.942654334E0,2.108076811E0,3.282952785E0,-4.091726780E0,5.653670920E0
3.945017772E0,2.021935225E0,3.218346357E0,-3.895515203E0,5.442519088E0
3.947381209E0,1.971685886E0,3.115455151E0,-3.646661758E0,5.185725408E0
3.949744699E0,1.962114573E0,3.048455954E0,-3.378665686E0,4.955639122E0
3.952108137E0,1.978864312E0,2.991028309E0,-3.091526747E0,4.734943710E0
3.954471574E0,1.995614052E0,2.921636343E0,-2.801995277E0,4.513270643E0
3.956835064E0,1.995614052E0,2.880958557E0,-2.512463808E0,4.312177181E0
3.959198501E0,2.007578135E0,2.835494757E0,-2.249253273E0,4.138784939E0
3.961561939E0,2.074577332E0,2.818745136E0,-2.000399828E0,4.031227446E0
3.963925428E0,2.096112728E0,2.778067112E0,-1.789831281E0,3.913418130E0
3.966288866E0,2.105684042E0,2.727817774E0,-1.598405480E0,3.798657022E0
3.968652355E0,2.127219439E0,2.689532757E0,-1.414158225E0,3.709244192E0
3.971015793E0,2.155933142E0,2.646461725E0,-1.270588875E0,3.642279981E0
3.973379230E0,2.213361025E0,2.596212626E0,-1.160519004E0,3.603621981E0
3.975742720E0,2.304288149E0,2.545963287E0,-1.071984529E0,3.597335648E0
